RAJ2000;DEJ2000;logT;logL;AV;logAc;M.S0;logA0;M.P9;logA9;Mm
"h:m:s";"d:m:s";[K];[Lsun];mag;[-];Msun;[yr];Msun;[yr];%
-----------;------------;------;------;------;-----;------;------;------;------;--
05 35 47.02;-05 17 56.91; 3.615; 2.739; 7.263;-5.00;      ;      ;      ;      ; 0
05 35 20.71;-05 21 44.45; 4.251; 2.628; 2.184;-1.31;      ;      ;      ;      ;99
05 35 05.21;-05 14 50.37; 3.768; 1.529; 2.665;-0.53; 2.918; 6.326; 2.850; 5.854;97
05 35 21.32;-05 12 12.74; 3.768; 1.359; 2.027;-0.79; 2.570; 6.469; 2.450; 6.226;70
05 34 49.98;-05 18 44.61; 3.936; 1.625; 2.511;-0.72; 2.342; 6.684; 2.400; 6.434;92
05 34 39.76;-05 24 25.66; 3.662; 1.045; 0.898;-1.57; 1.930; 5.669;      ;      ; 0
05 35 16.97;-05 21 45.42; 3.969; 1.371; 1.345;-0.72; 2.155; 6.941; 2.250; 6.695;99
05 35 05.64;-05 25 19.45; 3.699; 0.926; 0.769;-1.49; 2.515; 6.209; 2.487; 5.667;99
05 35 20.21;-05 20 57.09; 3.780; 1.348; 4.239;-0.22; 2.432; 6.551; 2.400; 6.285;99
05 35 50.46;-05 28 34.89; 3.936; 0.872; 1.570;-0.19;      ;      ;      ;      ;92
05 35 17.94;-05 22 45.48; 3.662; 1.082; 1.890;-0.76; 1.992; 5.639;      ;      ;99
05 34 55.97;-05 23 13.08; 3.675; 1.000; 1.198;-2.25; 2.267; 5.866;      ;      ;99
05 35 10.73;-05 23 44.69; 3.597; 0.824; 0.464;-2.42; 0.697; 4.797;      ;      ;99
05 35 41.98;-05 28 12.78; 3.722; 0.859; 0.879;-0.90; 2.237; 6.508; 2.063; 6.397;97
05 35 18.67;-05 20 33.83; 3.722; 1.136; 3.608;-0.24; 2.723; 6.294; 2.612; 5.868;99
05 34 30.33;-05 27 27.87; 3.780; 0.704; 0.000;-0.81; 1.470; 7.114; 1.455; 7.013; 0
05 35 15.97;-05 39 14.92; 3.746; 0.789; 0.607;-1.44; 1.840; 6.804; 1.775; 6.691; 0
05 35 26.20;-05 27 36.59; 3.753; 0.812; 1.106;-0.81; 1.790; 6.851; 1.775; 6.706;99
05 34 43.59;-05 18 27.64; 3.847; 0.834; 0.476;-5.00; 1.680; 7.161; 1.477; 7.097; 0
05 35 26.34;-05 25 40.11; 3.761; 0.901; 1.665;-0.90; 1.850; 6.827; 1.837; 6.676;99
05 35 15.94;-05 23 49.97; 3.722; 0.941; 2.890;-0.31; 2.372; 6.443; 2.188; 6.287;99
05 35 58.07;-05 12 54.64; 3.768; 1.473; 4.501;-5.00; 2.820; 6.364; 2.713; 5.990; 0
05 35 21.04;-05 23 49.01; 3.706; 0.812; 1.610;-0.74; 2.283; 6.394; 2.125; 6.206;99
05 34 27.70;-05 31 55.32; 3.746; 0.906; 2.081;-0.68; 1.997; 6.714; 1.875; 6.621;
05 34 27.34;-05 24 22.35; 3.726; 0.904; 1.917;-1.05; 2.253; 6.521; 2.075; 6.404; 0
05 34 19.49;-05 27 12.16; 3.754; 0.439; 0.014;-0.45; 1.327; 7.189; 1.305; 7.064;85
05 35 11.62;-05 16 57.74; 3.774; 1.103; 3.308;-0.60; 2.035; 6.743; 1.987; 6.604;99
05 35 26.31;-05 15 11.31; 3.726; 0.492; 0.000;-5.00; 1.605; 6.902; 1.525; 6.844; 0
05 35 17.21;-05 21 31.83; 3.668; 0.894; 2.289;-1.07; 1.970; 5.866; 1.913; 4.781;99
05 35 10.50;-05 26 18.24; 3.722; 0.754; 1.806;-0.70; 2.045; 6.620; 1.837; 6.560;99
05 34 29.25;-05 23 56.78; 3.706; 0.482; 0.165;-5.00; 1.747; 6.731; 1.612; 6.687; 1
05 35 29.83;-05 32 53.51; 3.675; 0.535; 0.772;-0.78; 1.795; 6.336; 1.663; 6.207;97
05 35 23.83;-05 30 47.45; 3.706; 0.510; 0.819;-0.65; 1.790; 6.701; 1.638; 6.664;98
05 35 18.36;-05 22 37.44; 3.722; 0.855; 2.984;-0.45; 2.215; 6.524; 2.050; 6.404;99
05 34 33.95;-05 28 24.50; 3.690; 0.518; 0.640;-1.47; 1.847; 6.526; 1.688; 6.473;93
05 35 15.63;-05 22 56.49; 3.722; 0.914; 2.970;-0.68; 2.328; 6.465; 2.150; 6.316;99
05 35 10.42;-05 38 24.68; 3.761; 0.780; 2.953;-0.30; 1.675; 6.938; 1.712; 6.767;35
05 35 02.39;-05 15 47.98; 3.675; 1.176; 4.257;-0.87; 2.540; 5.712;      ;      ;98
05 35 12.59;-05 23 44.11; 3.706; 0.721; 1.846;-1.02; 2.140; 6.475; 2.013; 6.337;99
05 35 26.99;-05 13 14.54; 3.765; 0.459; 0.157;-5.00; 1.298; 7.237; 1.290; 7.093; 0
05 35 14.68;-05 39 10.95; 3.690; 0.544; 0.996;-0.92; 1.900; 6.499; 1.712; 6.438;95
05 34 45.18;-05 25 04.13; 3.690; 0.670; 1.708;-1.03; 2.075; 6.364; 2.000; 6.127;99
05 35 17.06;-05 23 34.03; 3.706; 0.681; 2.804;-0.30; 2.075; 6.510; 1.825; 6.467;99
05 34 14.48;-05 28 16.82; 3.757; 0.527; 0.758;-5.00; 1.400; 7.130; 1.380; 7.022;70
05 35 26.87;-05 11 07.41; 3.765; 1.332; 4.967;-1.86; 2.545; 6.476; 2.438; 6.230;70
05 35 19.13;-05 20 38.85; 3.914; 0.285; 1.764;-0.12;      ;      ;      ;      ;99
05 35 47.51;-05 16 58.00; 3.809; 0.751; 1.810;-5.00; 1.482; 7.148; 1.447; 7.048; 0
05 34 26.18;-05 24 19.04; 3.609; 0.358; 0.453;-5.00; 0.735; 5.814; 0.790; 5.660;
05 35 15.25;-05 22 56.95; 3.754; 0.644; 2.840;-0.37; 1.558; 7.003; 1.500; 6.941;99
05 35 13.60;-05 30 57.65; 3.639; 0.299; 0.526;-0.83; 1.120; 6.167; 1.155; 6.112;99
05 34 31.51;-05 12 30.20; 3.722; 1.496; 6.793;-0.79; 3.475; 6.001;      ;      ; 0
05 35 00.12;-05 23 01.92; 3.722; 0.556; 2.422;-0.40; 1.737; 6.804; 1.625; 6.741;99
05 35 16.76;-05 24 04.25; 3.624; 0.439; 1.158;-1.55; 0.908; 5.843; 0.960; 5.732;98
05 35 20.16;-05 26 38.95; 3.722; 0.613; 2.414;-0.62; 1.827; 6.744; 1.688; 6.685;99
05 35 18.46;-05 16 37.79; 3.609; 0.223; 0.000;-5.00; 0.733; 5.940; 0.790; 5.860;99
05 35 36.02;-05 12 25.32; 3.690; 0.178; 1.959;-0.14; 1.418; 6.918; 1.327; 6.842;99
05 35 11.50;-05 26 02.32; 3.675; 0.625; 2.489;-0.67; 1.862; 6.234; 1.737; 6.000;99
05 34 35.15;-05 32 10.39; 3.690; 0.449; 1.568;-0.69; 1.773; 6.602; 1.625; 6.567;97
05 34 42.41;-05 12 18.69; 3.706; 0.968; 4.153;-0.89; 2.550; 6.264; 2.487; 5.837;58
05 35 15.55;-05 25 14.14; 3.585; 0.351; 0.900;-1.47; 0.553; 5.742; 0.575; 5.528;99
05 35 43.22;-05 36 27.50; 3.609; 0.185; 0.000;-2.31; 0.738; 5.995; 0.790; 5.907;83
05 34 56.48;-05 31 36.17; 3.895; 1.159; 4.130;-5.00; 1.928; 6.920; 1.775; 6.862;97
05 35 21.80;-05 23 53.89; 3.675; 0.380; 1.211;-5.00; 1.638; 6.510; 1.575; 6.467;99
05 36 01.86;-05 17 36.66; 3.616; 0.150; 0.000;-5.00; 0.810; 6.096; 0.870; 6.063;95
05 35 14.91;-05 22 39.25; 3.662; 0.522; 2.100;-1.06; 1.560; 6.171; 1.563; 5.988;99
05 34 56.82;-05 11 33.00; 3.639; 0.138; 0.000;-1.97; 1.125; 6.387; 1.130; 6.362;99
05 35 14.27;-05 24 24.64; 3.609; 0.300; 0.929;-1.33; 0.733; 5.868; 0.790; 5.739;99
05 35 09.05;-05 29 59.23; 3.675; 0.277; 0.955;-0.92; 1.543; 6.638; 1.500; 6.583;99
05 35 09.76;-05 23 26.89; 3.597; 0.149; 0.131;-1.76; 0.637; 5.945; 0.675; 5.822;99
05 35 15.18;-05 22 54.44; 3.668; 0.545; 2.534;-0.69; 1.690; 6.239; 1.625; 6.063;99
05 35 15.34;-05 22 15.60; 3.662; 0.692; 3.137;-1.08; 1.643; 5.985; 1.612; 5.582;99
05 35 22.26;-05 20 29.37; 3.675; 0.203; 0.482;-5.00; 1.487; 6.728; 1.357; 6.652;99
05 35 03.00;-05 30 01.50; 3.690; 0.476; 2.988;-0.32; 1.803; 6.586; 1.650; 6.519;79
05 35 21.38;-05 26 43.89; 3.624; 0.250; 0.842;-1.47; 0.902; 6.057; 0.960; 6.002;99
05 35 13.76;-05 39 10.08; 3.662; 0.268; 1.105;-0.91; 1.467; 6.496; 1.388; 6.443;93
05 34 40.86;-05 22 42.32; 3.609; 0.253; 1.277;-0.66; 0.733; 5.916; 0.790; 5.815;98
05 35 12.28;-05 23 48.07; 3.585; 0.087; 0.266;-5.00; 0.558; 5.933; 0.575; 5.793;99
05 35 27.51;-05 35 19.57; 3.597; 0.036; 0.003;-5.00; 0.642; 6.065; 0.675; 6.008;98
05 34 57.78;-05 23 52.59; 3.597; 0.018; 0.000;-5.00; 0.645; 6.091; 0.680; 6.052;99
05 35 22.18;-05 24 24.88; 3.683; 0.443; 2.243;-5.00; 1.755; 6.529; 1.625; 6.469;99
05 34 33.61;-05 23 10.29; 3.750; 0.195; 0.812;-5.00; 1.143; 7.373; 1.105; 7.290; 0
05 35 21.28;-05 24 57.36; 3.690; 0.349; 2.145;-0.64; 1.633; 6.718; 1.538; 6.675;99
05 35 14.65;-05 22 33.79; 3.609; 0.382; 2.243;-0.83; 0.735; 5.792; 0.790; 5.635;99
05 35 23.45;-05 10 51.64; 3.597;-0.023; 0.000;-5.00; 0.645; 6.129; 0.680; 6.116;88
05 35 31.26;-05 18 56.04; 3.597; 0.064; 0.568;-1.29; 0.640; 6.027; 0.675; 5.972;99
05 34 28.53;-05 24 57.98; 3.639; 0.064; 0.579;-1.32; 1.130; 6.493; 1.085; 6.449;97
05 35 13.20;-05 24 55.43; 3.722; 0.792; 4.313;-5.00; 2.125; 6.569; 1.888; 6.519;99
05 35 15.83;-05 23 22.53; 3.690; 0.101; 0.746;-5.00; 1.325; 7.013; 1.260; 6.952;99
05 34 50.71;-05 24 01.28; 3.639;-0.053; 0.000;-3.43; 1.133; 6.684; 1.040; 6.642;99
05 35 40.19;-05 17 29.36; 4.098;-0.553; 4.848;-0.01;      ;      ;      ;      ;99
05 35 25.08;-05 23 46.74; 3.662; 0.234; 1.691;-1.10; 1.450; 6.549; 1.350; 6.488;96
05 35 07.61;-05 36 19.70; 3.533;-0.030; 0.049;-5.00; 0.322; 5.746; 0.265; 5.329; 0
05 35 17.00;-05 22 33.08; 3.690; 0.388; 2.561;-1.09; 1.680; 6.672; 1.575; 6.630;99
05 35 10.49;-05 22 45.74; 3.577; 0.079; 0.883;-1.43; 0.502; 5.902; 0.520; 5.768;81
05 35 42.77;-05 11 54.76; 3.616;-0.015; 0.378;-5.00; 0.832; 6.331; 0.855; 6.349;98
05 34 08.22;-05 11 43.03; 3.539;-0.061; 0.033;-5.00; 0.343; 5.959; 0.300; 5.388;
05 35 14.05;-05 23 38.38; 3.533;-0.069; 0.000;-5.00; 0.322; 5.889; 0.270; 5.408;97
05 35 17.55;-05 22 56.86; 3.668; 0.064; 4.266;-0.06; 1.335; 6.838; 1.253; 6.726;99
05 35 14.98;-05 21 59.97; 3.662; 0.266; 2.077;-0.94; 1.467; 6.496; 1.388; 6.443;79
05 35 14.39;-05 23 33.67; 3.569; 0.081; 0.936;-5.00; 0.463; 5.891; 0.465; 5.662;95
05 35 11.88;-05 31 55.40; 3.577;-0.104; 0.000;-5.00; 0.507; 6.077; 0.520; 6.019;98
05 35 27.43;-05 26 28.02; 3.585;-0.114; 0.000;-5.00; 0.565; 6.150; 0.580; 6.114;99
05 35 13.79;-05 22 07.08; 3.551;-0.062; 0.218;-5.00; 0.385; 5.966; 0.360; 5.609;99
05 35 21.70;-05 34 46.90; 3.726;-0.201; 1.625;-0.15; 0.993; 7.704; 0.915; 7.617;99
05 35 18.89;-05 16 14.05; 3.675;-0.101; 0.110;-5.00; 1.160; 7.139; 1.105; 7.052;98
05 35 15.61;-05 24 03.07; 3.591;-0.014; 0.575;-5.00; 0.598; 6.072; 0.620; 6.010;99
05 35 16.00;-05 23 52.97; 3.809; 0.771; 4.316;-5.00; 1.490; 7.141; 1.462; 7.039;99
05 35 16.88;-05 22 22.54; 3.585; 0.059; 1.044;-5.00; 0.555; 5.956; 0.575; 5.831;99
05 35 35.29;-05 21 27.21; 3.662;-0.017; 1.577;-0.35; 1.263; 6.897; 1.190; 6.748;99
05 35 25.40;-05 10 47.97; 3.675;-0.010; 0.747;-1.84; 1.260; 7.009; 1.207; 6.908;96
05 34 52.16;-05 22 31.92; 3.542;-0.004; 0.657;-5.00; 0.352; 5.901; 0.315; 5.301;97
05 35 10.58;-05 21 56.30; 3.609;-0.061; 0.576;-1.22; 0.757; 6.302; 0.785; 6.331;99
05 34 29.26;-05 14 39.74; 3.662; 0.406; 3.162;-0.86; 1.523; 6.316; 1.538; 6.233; 0
05 35 16.44;-05 42 39.59; 3.624;-0.159; 0.000;-5.00; 0.955; 6.653; 0.915; 6.652;
05 34 37.96;-05 41 08.69; 3.577;-0.166; 0.000;-5.00; 0.510; 6.144; 0.525; 6.091;
05 35 11.13;-05 36 51.21; 3.551;-0.021; 0.756;-5.00; 0.385; 5.941; 0.365; 5.491;98
05 35 02.08;-05 26 36.12; 3.560;-0.148; 0.136;-3.18; 0.425; 6.039; 0.405; 5.894;99
05 35 41.37;-05 12 58.98; 3.551;-0.130; 0.208;-5.00; 0.385; 6.008; 0.360; 5.752;26
05 35 16.06;-05 20 36.38; 3.662; 0.329; 3.402;-0.43; 1.497; 6.419; 1.513; 6.354;99
05 35 50.78;-05 16 29.21; 3.639; 0.005; 1.098;-1.38; 1.133; 6.584; 1.060; 6.521;88
05 35 16.97;-05 23 01.02; 3.585; 0.024; 1.250;-1.42; 0.558; 5.995; 0.575; 5.896;99
05 35 03.92;-05 29 03.37; 3.560;-0.138; 0.334;-2.95; 0.423; 6.031; 0.405; 5.882;99
05 34 42.95;-05 20 07.01; 3.624; 0.068; 1.558;-1.10; 0.918; 6.299; 0.950; 6.308;99
05 34 48.47;-05 41 58.18; 3.624;-0.208; 0.000;-3.18; 0.962; 6.728; 0.910; 6.724;
05 35 25.67;-05 30 21.04; 3.577;-0.210; 0.000;-5.00; 0.510; 6.195; 0.520; 6.145;99
05 35 20.04;-05 21 06.03; 3.609; 0.209; 2.337;-1.05; 0.735; 5.967; 0.790; 5.876;99
05 35 14.05;-05 19 52.13; 3.761; 0.312; 2.720;-1.48; 1.200; 7.337; 1.160; 7.236;99
05 35 24.42;-05 24 39.77; 3.585; 0.052; 2.674;-0.28; 0.555; 5.966; 0.575; 5.844;99
05 34 57.74;-05 23 51.49; 3.597;-0.004; 1.254;-1.57; 0.647; 6.118; 0.680; 6.084;99
05 35 16.97;-05 23 37.06; 3.551;-0.274; 0.000;-0.80; 0.385; 6.115; 0.365; 5.945;99
05 35 38.86;-05 12 42.00; 3.690; 0.678; 5.221;-0.61; 2.090; 6.356; 2.013; 6.125;99
05 35 52.03;-05 28 47.15; 3.624;-0.247; 0.000;-2.27; 0.957; 6.793; 0.905; 6.773;99
05 35 34.91;-05 29 14.35; 3.675;-0.020; 1.235;-1.77; 1.245; 7.031; 1.185; 6.938;99
05 34 07.32;-05 13 45.46; 3.624;-0.256; 0.000;-1.50; 0.957; 6.817; 0.905; 6.791;
05 35 20.99;-05 31 21.68; 3.639;-0.894; 2.658;-0.02; 0.692; 7.839; 0.665; 7.877;99
05 35 18.69;-05 22 56.86; 3.675; 0.392; 3.399;-5.00; 1.648; 6.502; 1.587; 6.445;99
05 35 25.05;-05 22 58.53; 3.683; 0.398; 4.770;-0.25; 1.705; 6.578; 1.587; 6.539;99
05 35 36.71;-05 37 41.62; 3.609;-0.122; 0.729;-1.96; 0.765; 6.391; 0.785; 6.430;96
05 35 49.50;-05 35 26.36; 3.577;-0.261; 0.000;-5.00; 0.507; 6.250; 0.525; 6.223;92
05 34 48.31;-05 37 22.83; 3.597;-0.271; 0.000;-5.00; 0.668; 6.476; 0.690; 6.505;95
05 35 06.52;-05 24 41.39; 3.569;-0.257; 0.076;-5.00; 0.465; 6.186; 0.465; 6.147;99
05 34 36.54;-05 36 17.10; 3.533;-0.251; 0.000;-5.00; 0.325; 6.075; 0.270; 5.709;
05 35 08.85;-05 31 49.18; 3.662;-0.029; 2.224;-0.35; 1.253; 6.913; 1.175; 6.777;99
05 34 51.56;-05 25 13.05; 3.690; 0.118; 3.100;-0.32; 1.342; 6.990; 1.275; 6.930;99
05 34 44.74;-05 33 42.12; 3.569;-0.278; 0.000;-5.00; 0.465; 6.211; 0.465; 6.163;99
05 35 17.81;-05 23 15.56; 3.585;-0.054; 1.449;-0.80; 0.563; 6.080; 0.580; 6.018;17
05 35 04.52;-05 29 38.32; 3.639;-0.080; 1.105;-1.45; 1.122; 6.708; 1.030; 6.676;99
05 35 06.45;-05 33 35.27; 3.577; 0.233; 3.735;-0.32; 0.500; 5.803; 0.520; 5.523; 0
05 35 28.19;-05 24 58.09; 3.609;-0.125; 0.971;-1.08; 0.765; 6.408; 0.785; 6.430;91
05 35 24.25;-05 25 18.68; 3.639; 0.079; 2.497;-0.50; 1.130; 6.471; 1.095; 6.420;99
05 35 04.50;-05 23 56.55; 3.690; 0.315; 3.836;-0.45; 1.590; 6.753; 1.513; 6.700;99
05 35 45.43;-05 20 36.79; 3.585;-0.245; 0.256;-5.00; 0.570; 6.317; 0.590; 6.319;99
05 36 00.79;-05 41 06.61; 3.560;-0.301; 0.000;-5.00; 0.423; 6.182; 0.410; 6.175;
05 35 47.39;-05 13 18.60; 3.560;-0.302; 0.000;-5.00; 0.423; 6.182; 0.410; 6.175;98
05 35 14.08;-05 22 36.61; 3.533;-0.184; 0.573;-5.00; 0.325; 6.038; 0.270; 5.636;99
05 35 29.46;-05 16 33.43; 3.585;-0.163; 0.851;-1.85; 0.563; 6.205; 0.585; 6.210;99
05 35 27.29;-05 23 36.60; 3.662; 0.173; 3.921;-0.25; 1.420; 6.622; 1.305; 6.564;99
05 35 22.19;-05 26 37.32; 3.577;-0.197; 0.671;-2.01; 0.507; 6.172; 0.520; 6.130;99
05 35 05.73;-05 24 18.47; 3.639;-0.376; 2.899;-0.07; 0.978; 7.168; 0.910; 7.068;99
05 34 18.01;-05 33 33.38; 3.569;-0.322; 0.015;-5.00; 0.468; 6.262; 0.470; 6.209;
05 34 29.07;-05 14 14.57; 3.585; 0.083; 2.206;-1.44; 0.555; 5.936; 0.575; 5.806; 0
05 35 28.93;-05 16 18.46; 3.581;-0.041; 1.694;-0.90; 0.533; 6.036; 0.550; 5.965;
05 35 04.38;-05 23 14.00; 3.577;-0.302; 0.133;-5.00; 0.510; 6.301; 0.530; 6.273;99
05 35 19.65;-05 24 26.60; 3.542;-0.250; 0.339;-5.00; 0.355; 6.078; 0.320; 5.817;99
05 35 12.81;-05 20 43.73; 3.569;-0.187; 0.905;-1.09; 0.468; 6.113; 0.465; 6.081;99
05 36 07.30;-05 40 22.41; 3.569;-0.155; 0.961;-5.00; 0.465; 6.081; 0.465; 5.944;
05 35 05.41;-05 27 17.03; 3.624;-0.259; 0.503;-1.27; 0.955; 6.813; 0.900; 6.803;99
05 35 18.98;-05 37 36.71; 3.569;-0.341; 0.000;-2.81; 0.468; 6.289; 0.470; 6.229; 0
05 35 20.15;-05 13 15.73; 3.639; 0.534;10.598;-0.02; 1.130; 5.882; 1.145; 5.663;99
05 34 46.92;-05 35 07.86; 3.560;-0.157; 0.947;-3.15; 0.425; 6.049; 0.410; 5.900;65
05 35 16.60;-05 32 48.10; 3.577;-0.271; 0.392;-5.00; 0.510; 6.260; 0.525; 6.234;99
05 35 15.48;-05 22 48.67; 3.551;-0.033; 1.598;-5.00; 0.387; 5.949; 0.360; 5.495;99
05 35 38.22;-05 14 19.00; 3.528;-0.172; 0.765;-5.00; 0.308; 6.023; 0.245; 5.584;94
05 34 18.53;-05 34 00.26; 3.585;-0.352; 0.000;-5.00; 0.572; 6.458; 0.600; 6.479;
05 35 28.37;-05 25 03.32; 3.560;-0.143; 1.178;-1.12; 0.423; 6.031; 0.410; 5.889;99
05 35 42.48;-05 27 33.02; 3.624;-0.138; 1.199;-1.25; 0.950; 6.606; 0.915; 6.613;99
05 35 12.36;-05 36 40.45; 3.675;-0.356; 0.000;-5.00; 0.923; 7.469; 0.895; 7.434; 0
05 34 19.55;-05 30 19.82; 3.639; 0.082; 2.345;-1.39; 1.133; 6.471; 1.095; 6.420;
05 35 27.92;-05 16 57.30; 3.524;-0.228; 0.486;-5.00; 0.295; 6.013; 0.225; 5.632;99
05 33 52.35;-05 41 50.37; 3.577;-0.361; 0.000;-5.00; 0.512; 6.382; 0.535; 6.367;
05 35 32.51;-05 26 10.36; 3.560;-0.357; 0.000;-5.00; 0.423; 6.245; 0.410; 6.209;99
05 35 23.39;-05 18 50.75; 3.577;-0.166; 1.036;-5.00; 0.510; 6.144; 0.520; 6.085;99
05 35 18.00;-05 29 34.60; 3.560;-0.291; 0.375;-5.00; 0.423; 6.170; 0.410; 6.169;99
05 35 20.45;-05 23 29.78; 3.585;-0.035; 1.755;-5.00; 0.560; 6.059; 0.580; 5.989;99
05 35 35.61;-05 15 43.26; 3.560;-0.328; 0.216;-1.92; 0.423; 6.207; 0.410; 6.192;99
05 35 19.30;-05 20 08.00; 3.690;      ; 4.019; 0.00;      ;      ;      ;      ;99
05 35 15.19;-05 22 24.11; 3.609;-0.199; 1.135;-0.84; 0.777; 6.508; 0.790; 6.548;99
05 35 05.69;-05 25 06.35; 3.551;-0.363; 0.000;-5.00; 0.385; 6.203; 0.365; 6.140;99
05 35 15.80;-05 33 12.41; 3.585;-0.346; 0.172;-2.12; 0.575; 6.454; 0.600; 6.466;99
05 34 46.40;-05 24 31.87; 3.585;-0.307; 0.402;-2.11; 0.572; 6.399; 0.600; 6.413;97
05 34 50.50;-05 11 10.58; 3.597;-0.326; 0.289;-5.00; 0.673; 6.559; 0.690; 6.567;98
05 35 21.93;-05 14 27.72; 3.542;-0.316; 0.257;-5.00; 0.355; 6.131; 0.320; 5.899;99
05 34 50.73;-05 27 01.09; 3.585;-0.239; 0.825;-1.45; 0.567; 6.306; 0.590; 6.307;99
05 34 52.59;-05 24 03.80; 3.560;-0.383; 0.000;-5.00; 0.423; 6.271; 0.410; 6.226;99
05 35 15.67;-05 25 33.14; 3.597;-0.183; 2.538;-0.22; 0.658; 6.347; 0.690; 6.387;99
05 35 47.48;-05 22 49.47; 3.542;-0.377; 0.000;-5.00; 0.355; 6.180; 0.320; 5.950;99
05 34 26.16;-05 26 30.45; 3.683; 0.291; 4.321;-0.43; 1.567; 6.714; 1.500; 6.672;
05 35 05.33;-05 34 28.58; 3.585;-0.377; 0.132;-5.00; 0.575; 6.500; 0.600; 6.502;99
05 35 52.76;-05 12 59.04; 3.631;-0.183; 1.146;-5.00; 1.025; 6.779; 0.970; 6.760;36
05 34 12.89;-05 28 48.23; 3.609;-0.407; 0.008;-5.00; 0.813; 6.867; 0.780; 6.806;
05 35 20.03;-05 25 37.54; 3.582;-0.192; 1.155;-1.93; 0.540; 6.208; 0.560; 6.207;99
05 35 31.24;-05 23 40.00; 3.662;-0.003; 2.412;-0.76; 1.278; 6.867; 1.207; 6.727;99
05 34 48.82;-05 23 17.92; 3.569;-0.053; 1.923;-1.45; 0.465; 5.989; 0.465; 5.851;99
05 35 30.93;-05 43 05.34; 3.543;-0.396; 0.000;-5.00; 0.355; 6.190; 0.320; 5.971;
05 35 36.45;-05 34 11.20; 3.569;-0.259; 0.885;-1.25; 0.465; 6.186; 0.465; 6.147;98
05 35 32.34;-05 18 07.88; 3.569;-0.164; 1.299;-5.00; 0.468; 6.091; 0.465; 5.961;99
05 35 21.15;-05 25 56.93; 3.577;-0.285; 0.736;-1.51; 0.507; 6.277; 0.525; 6.255;99
05 35 17.22;-05 20 27.78; 3.533;-0.363; 0.192;-1.94; 0.322; 6.145; 0.275; 5.852;99
05 35 22.53;-05 23 43.70; 3.585;-0.327; 0.510;-3.03; 0.572; 6.429; 0.600; 6.439;99
05 34 17.48;-05 31 58.64; 3.543;-0.308; 0.511;-5.00; 0.355; 6.121; 0.320; 5.887;
05 34 55.97;-05 29 26.38; 3.560;-0.345; 0.421;-1.85; 0.425; 6.231; 0.410; 6.203;99
05 35 16.75;-05 23 16.50; 3.746;-1.869; 0.000;-0.01;      ;      ;      ;      ;99
05 35 45.39;-05 28 10.81; 3.569;-0.254; 0.984;-1.42; 0.468; 6.185; 0.470; 6.142;99
05 35 30.91;-05 18 17.99; 3.524;-0.239; 0.856;-5.00; 0.295; 6.023; 0.225; 5.641;99
05 35 15.95;-05 14 59.03; 3.624;-0.180; 1.367;-1.85; 0.957; 6.678; 0.915; 6.690;99
05 35 46.12;-05 10 51.78; 3.609;-0.325; 0.723;-1.17; 0.803; 6.719; 0.785; 6.706;99
05 34 20.75;-05 30 48.70; 3.551;-0.435; 0.000;-5.00; 0.382; 6.268; 0.365; 6.188;
05 35 17.35;-05 25 44.68; 3.569;-0.267; 0.993;-1.40; 0.465; 6.199; 0.465; 6.155;99
05 35 30.41;-05 25 38.52; 3.597;-0.287; 1.239;-0.64; 0.670; 6.509; 0.690; 6.517;99
05 34 23.87;-05 15 40.23; 3.577; 0.161; 3.204;-5.00; 0.498; 5.844; 0.520; 5.652;
05 34 36.09;-05 42 15.17; 3.569;-0.452; 0.000;-5.00; 0.465; 6.418; 0.470; 6.355;
05 35 24.69;-05 24 35.71; 3.585;-0.211; 1.382;-1.19; 0.567; 6.265; 0.590; 6.276;99
05 35 20.39;-05 22 13.69; 3.631;-0.011; 5.772;-0.06; 1.030; 6.508; 1.000; 6.502;99
05 35 43.40;-05 32 44.19; 3.569;-0.430; 0.149;-5.00; 0.465; 6.388; 0.470; 6.329;99
05 35 51.04;-05 15 09.19; 3.609;-0.401; 0.312;-5.00; 0.813; 6.867; 0.780; 6.792;78
05 35 29.57;-05 24 56.82; 3.569;-0.298; 0.892;-1.77; 0.468; 6.236; 0.470; 6.187;99
05 35 17.49;-05 39 28.61; 3.585;-0.480; 0.000;-5.00; 0.580; 6.646; 0.600; 6.650;
05 35 29.09;-05 29 10.34; 3.585;-0.211; 1.524;-1.13; 0.565; 6.268; 0.590; 6.276;99
05 35 15.89;-05 28 52.83; 3.542;-0.373; 0.470;-2.60; 0.355; 6.170; 0.320; 5.943;99
05 35 11.97;-05 20 33.12; 3.675; 0.519; 5.594;-0.68; 1.780; 6.369; 1.663; 6.236;99
05 35 05.74;-05 26 26.08; 3.533;-0.360; 0.514;-5.00; 0.325; 6.141; 0.275; 5.841;99
05 34 49.29;-05 18 55.41; 3.533;-0.459; 0.000;-5.00; 0.322; 6.218; 0.275; 5.934;99
05 35 24.64;-05 11 58.34; 3.528;-0.472; 0.000;-1.33; 0.303; 6.210; 0.250; 5.906;
05 34 27.93;-05 26 34.69; 3.624;-0.227; 1.471;-1.19; 0.960; 6.772; 0.910; 6.761;
05 35 27.47;-05 17 09.79; 3.585;-0.110; 2.065;-1.42; 0.563; 6.140; 0.580; 6.114;99
05 35 22.90;-05 32 29.06; 3.569;-0.327; 0.960;-1.18; 0.465; 6.263; 0.470; 6.219;99
05 34 54.25;-05 21 35.38; 3.551;-0.409; 0.472;-1.26; 0.385; 6.239; 0.365; 6.175;99
05 35 08.02;-05 32 44.38; 3.585;-0.507; 0.000;-1.42; 0.582; 6.689; 0.605; 6.698;99
05 34 14.93;-05 15 49.62; 3.569;-0.478; 0.090;-5.00; 0.468; 6.461; 0.475; 6.406;
05 35 34.21;-05 27 18.25; 3.520;-0.423; 0.195;-5.00; 0.285; 6.157; 0.210; 5.770;
05 34 55.98;-05 31 13.04; 3.551;-0.383; 0.553;-2.88; 0.385; 6.215; 0.365; 6.154;99
05 35 13.51;-05 22 19.62; 3.560;-0.315; 0.945;-5.00; 0.423; 6.195; 0.410; 6.186;99
05 35 24.24;-05 29 57.13; 3.551;-0.368; 0.656;-2.62; 0.385; 6.203; 0.365; 6.147;99
05 35 27.49;-05 27 25.86; 3.533;-0.415; 0.332;-5.00; 0.322; 6.180; 0.275; 5.904;99
05 34 37.46;-05 34 51.93; 3.675;-0.166; 2.235;-0.58; 1.095; 7.223; 1.050; 7.146;92
05 35 39.03;-05 40 59.86; 3.569;-0.505; 0.000;-5.00; 0.465; 6.492; 0.475; 6.433;
05 35 20.30;-05 30 39.50; 3.495;-0.432; 0.000;-5.00; 0.222; 5.653; 0.130; 5.370;99
05 35 29.33;-05 25 46.18; 3.515;-0.338; 0.673;-2.09; 0.273; 5.913; 0.185; 5.605;99
05 34 47.90;-05 30 46.56; 3.515;-0.468; 0.000;-5.00; 0.268; 6.189; 0.190; 5.742;99
05 34 31.29;-05 28 54.78; 3.515;-0.322; 0.778;-2.09; 0.273; 5.900; 0.185; 5.596;99
05 35 46.42;-05 41 00.74; 3.515;-0.402; 0.352;-5.00; 0.270; 5.986; 0.188; 5.652;
05 35 08.22;-05 37 04.81; 3.585;-0.276; 1.480;-0.88; 0.572; 6.356; 0.595; 6.365;95
05 34 42.74;-05 28 37.53; 3.541;-0.110; 2.192;-1.04; 0.347; 5.995; 0.310; 5.576;
05 35 24.48;-05 16 59.93; 3.569;-0.192; 2.115;-0.63; 0.468; 6.125; 0.465; 6.089;99
05 35 12.82;-05 15 24.00; 3.609; 0.013; 2.844;-1.59; 0.748; 6.200; 0.785; 6.224;99
05 34 37.69;-05 43 04.40; 3.515;-0.483; 0.000;-5.00; 0.268; 6.204; 0.190; 5.766;
05 34 45.57;-05 29 20.92; 3.515;-0.381; 0.546;-2.58; 0.270; 5.960; 0.188; 5.633;99
05 35 18.52;-05 13 38.39; 3.551; 0.070; 3.131;-1.62; 0.382; 5.876; 0.365; 5.200;99
05 35 20.76;-05 21 55.14; 3.585;-0.259; 1.893;-0.58; 0.570; 6.331; 0.595; 6.341;99
05 34 46.62;-05 10 40.50; 3.690; 0.029; 3.082;-1.10; 1.237; 7.110; 1.195; 7.016; 0
05 34 50.44;-05 20 20.36; 3.624;-0.278; 1.396;-1.60; 0.955; 6.838; 0.895; 6.814;99
05 35 54.33;-05 26 44.47; 3.577;-0.267; 1.861;-0.60; 0.510; 6.260; 0.525; 6.234;98
05 35 25.22;-05 15 35.85; 3.542;-0.408; 0.624;-1.80; 0.352; 6.205; 0.320; 6.036;99
05 35 00.82;-05 38 08.01; 3.585;-0.364; 1.158;-0.85; 0.575; 6.484; 0.600; 6.491;98
05 35 12.21;-05 30 32.94; 3.577;-0.328; 1.216;-1.23; 0.512; 6.339; 0.530; 6.307;99
05 34 33.67;-05 14 36.17; 3.569;-0.545; 0.000;-5.00; 0.465; 6.538; 0.475; 6.488;28
05 35 46.24;-05 18 08.46; 3.551;-0.425; 0.613;-5.00; 0.385; 6.264; 0.365; 6.181;99
05 35 31.27;-05 40 10.88; 3.569;-0.556; 0.000;-5.00; 0.465; 6.554; 0.475; 6.516;
05 35 02.50;-05 33 10.01; 3.560;-0.393; 0.875;-1.58; 0.423; 6.284; 0.410; 6.232;99
05 35 38.03;-05 28 21.51; 3.515;-0.517; 0.000;-5.00; 0.265; 6.241; 0.190; 5.801;98
05 34 54.94;-05 17 01.79; 3.624; 0.111; 4.158;-0.46; 0.915; 6.245; 0.960; 6.255;99
05 35 02.44;-05 20 46.52; 3.639;-0.009; 3.363;-0.58; 1.133; 6.608; 1.055; 6.559;99
05 35 54.64;-05 27 07.64; 3.551;-0.554; 0.000;-5.00; 0.382; 6.403; 0.365; 6.267;99
05 35 26.00;-05 25 47.73; 3.585;-0.133; 2.456;-0.93; 0.563; 6.166; 0.585; 6.164;99
05 34 51.75;-05 39 24.03; 3.524;-0.403; 0.679;-5.00; 0.295; 6.150; 0.230; 5.794;
05 35 59.61;-05 29 43.60; 3.706;-0.005; 5.130;-0.14; 1.128; 7.282; 1.090; 7.198;
05 35 13.74;-05 22 22.04; 3.560;-0.079; 3.291;-0.41; 0.423; 5.987; 0.405; 5.799;99
05 35 03.56;-05 29 26.12; 3.543;-0.492; 0.310;-2.36; 0.352; 6.285; 0.320; 6.138;
05 35 10.94;-05 24 48.67; 3.533;-0.200; 1.801;-5.00; 0.322; 6.048; 0.270; 5.652;99
05 36 00.56;-05 23 29.94; 3.609;-0.570; 0.000;-5.00; 0.803; 7.151; 0.755; 7.052; 0
05 35 15.83;-05 22 45.88; 3.533;-0.469; 0.407;-5.00; 0.322; 6.228; 0.275; 5.947;99
05 34 27.05;-05 32 29.15; 3.533;-0.549; 0.000;-5.00; 0.320; 6.296; 0.275; 6.084;
05 35 04.76;-05 26 37.93; 3.577;-0.370; 1.118;-1.73; 0.512; 6.396; 0.530; 6.369;99
05 35 22.62;-05 14 11.30; 3.543;-0.155; 2.153;-1.77; 0.355; 6.021; 0.315; 5.683;
05 35 04.06;-05 26 37.07; 3.551;-0.500; 0.363;-5.00; 0.382; 6.347; 0.365; 6.234;99
05 35 19.94;-05 33 53.54; 3.533;-0.491; 0.337;-5.00; 0.320; 6.242; 0.275; 6.019;99
05 34 30.24;-05 11 48.24; 3.631; 0.000; 4.144;-0.30; 1.020; 6.491; 1.005; 6.481;
05 35 21.66;-05 25 26.43; 3.585;-0.446; 0.817;-1.36; 0.575; 6.591; 0.600; 6.609;94
05 35 00.48;-05 25 14.28; 3.624;-0.407; 3.260;-0.13; 0.923; 7.068; 0.860; 6.968;99
05 35 27.55;-05 28 30.92; 3.505;-0.448; 0.457;-2.60; 0.245; 6.028; 0.157; 5.510;99
05 35 23.52;-05 18 57.18; 3.585;-0.454; 0.754;-5.00; 0.580; 6.615; 0.600; 6.609;99
05 34 52.66;-05 29 45.28; 3.533;-0.356; 1.190;-1.59; 0.325; 6.141; 0.275; 5.841;99
05 35 23.80;-05 23 34.28; 3.569;-0.274; 1.710;-5.00; 0.468; 6.210; 0.465; 6.163;99
05 35 18.95;-05 21 07.87; 3.528;-0.303; 1.448;-1.67; 0.308; 6.103; 0.245; 5.715;99
05 34 45.90;-05 24 55.89; 3.585;-0.404; 1.104;-1.50; 0.575; 6.530; 0.600; 6.537;99
05 35 11.38;-05 19 12.19; 3.569;-0.497; 0.577;-1.90; 0.465; 6.477; 0.475; 6.420;99
05 35 45.58;-05 28 23.01; 3.533;-0.509; 0.375;-5.00; 0.320; 6.263; 0.275; 6.039;95
05 35 17.54;-05 25 42.76; 3.597;-0.357; 1.325;-2.23; 0.678; 6.612; 0.690; 6.608;99
05 34 07.46;-05 13 36.49; 3.543;-0.527; 0.352;-3.26; 0.350; 6.313; 0.320; 6.163;
05 34 59.63;-05 25 39.95; 3.551;-0.480; 0.665;-1.69; 0.382; 6.320; 0.365; 6.221;99
05 34 53.43;-05 10 28.00; 3.524;-0.217; 1.979;-1.27; 0.295; 6.003; 0.225; 5.621;99
05 35 30.27;-05 25 51.55; 3.524;-0.521; 0.312;-5.00; 0.290; 6.250; 0.230; 5.904;99
05 33 57.69;-05 40 06.10; 3.533;-0.347; 1.291;-2.06; 0.325; 6.133; 0.275; 5.830;
05 35 12.15;-05 31 38.80; 3.495;-0.470; 0.402;-2.40; 0.220; 5.840; 0.130; 5.384;99
05 35 29.81;-05 16 06.45; 3.558;-0.305; 1.633;-5.00; 0.415; 6.174; 0.400; 6.184;
05 35 27.89;-05 28 02.06; 3.495;-0.551; 0.000;-5.00; 0.213; 6.231; 0.130; 5.415;99
05 35 30.66;-05 27 16.69; 3.524;-0.475; 0.643;-2.64; 0.292; 6.210; 0.230; 5.871;99
05 35 29.66;-05 31 12.38; 3.551;-0.491; 0.701;-1.88; 0.382; 6.333; 0.365; 6.228;98
05 34 14.20;-05 42 20.98; 3.551;-0.588; 0.193;-5.00; 0.377; 6.438; 0.365; 6.296;
05 35 16.51;-05 40 18.02; 3.533;-0.611; 0.000;-5.00; 0.317; 6.359; 0.275; 6.145;
05 34 31.90;-05 26 36.86; 3.524;-0.601; 0.026;-5.00; 0.287; 6.310; 0.230; 6.013;99
05 35 23.65;-05 23 31.97; 3.639;-0.175; 2.437;-5.00; 1.097; 6.860; 1.015; 6.840;99
05 35 11.87;-05 19 26.23; 3.675; 0.281; 7.145;-0.13; 1.550; 6.624; 1.500; 6.583;99
05 35 15.30;-05 39 56.19; 3.520;-0.357; 1.318;-1.77; 0.285; 6.031; 0.205; 5.697;
05 35 18.59;-05 16 35.24; 3.609; 0.007; 3.448;-1.51; 0.750; 6.217; 0.785; 6.224;99
05 35 04.20;-05 26 27.75; 3.551;-0.343; 1.665;-1.03; 0.385; 6.180; 0.365; 6.081;99
05 35 40.83;-05 32 01.90; 3.522;-0.579; 0.155;-5.00; 0.282; 6.294; 0.220; 5.949;
05 35 37.16;-05 10 29.53; 3.533;-0.579; 0.214;-5.00; 0.317; 6.323; 0.275; 6.104;
05 35 48.17;-05 31 55.74; 3.569;-0.599; 0.271;-2.22; 0.465; 6.617; 0.475; 6.570;99
05 35 47.54;-05 12 18.14; 3.609;-0.651; 0.000;-5.00; 0.765; 7.256; 0.690; 7.172; 0
05 33 52.11;-05 30 28.37; 3.526;-0.597; 0.119;-5.00; 0.295; 6.317; 0.240; 6.037;
05 35 30.80;-05 30 36.19; 3.524;-0.570; 0.262;-2.91; 0.290; 6.288; 0.230; 5.972;99
05 35 35.22;-05 26 54.93; 3.533;-0.563; 0.353;-5.00; 0.317; 6.311; 0.275; 6.094;99
05 34 17.14;-05 38 16.84; 3.530;-0.494; 0.713;-3.00; 0.310; 6.236; 0.260; 5.939;
05 35 17.86;-05 23 03.12; 3.597;-0.555; 0.555;-5.00; 0.702; 6.947; 0.675; 6.906;
05 35 28.35;-05 18 23.15; 3.515;-0.545; 0.378;-2.76; 0.265; 6.261; 0.190; 5.826;99
05 35 25.42;-05 21 51.58; 3.585;-0.289; 2.050;-1.20; 0.570; 6.374; 0.595; 6.377;
05 35 11.12;-05 34 59.68; 3.505;-0.337; 1.421;-1.79; 0.250; 5.722; 0.157; 5.470;99
05 35 29.84;-05 23 55.48; 3.560;-0.240; 2.519;-0.69; 0.425; 6.123; 0.410; 5.982;99
05 34 13.20;-05 33 53.53; 3.543;-0.654; 0.000;-1.51; 0.345; 6.453; 0.320; 6.266;
05 35 05.85;-05 27 01.57; 3.524;-0.398; 1.213;-5.00; 0.295; 6.150; 0.230; 5.794;99
05 35 05.72;-05 23 54.05; 3.510;-0.260; 1.979;-1.12; 0.262; 5.744; 0.170; 5.472;99
05 35 01.04;-05 24 10.20; 3.542;-0.381; 1.395;-5.00; 0.355; 6.180; 0.320; 5.950;99
05 34 13.00;-05 42 13.25; 3.551;-0.657; 0.000;-5.00; 0.377; 6.528; 0.365; 6.390;
05 35 08.53;-05 25 17.94; 3.551;-0.426; 1.214;-5.00; 0.385; 6.264; 0.365; 6.188;99
05 34 27.54;-05 28 28.41; 3.511;-0.505; 0.604;-2.84; 0.255; 6.225; 0.177; 5.713;
05 35 44.85;-05 24 34.47; 3.515;-0.344; 1.549;-1.61; 0.273; 5.926; 0.188; 5.620;99
05 34 52.03;-05 24 43.02; 3.524;-0.656; 0.000;-1.37; 0.285; 6.366; 0.230; 6.074;99
05 35 12.73;-05 16 52.77; 3.609; 0.377; 5.830;-0.74; 0.735; 5.792; 0.790; 5.635;99
05 35 19.49;-05 36 51.83; 3.526;-0.565; 0.450;-2.50; 0.295; 6.285; 0.240; 5.998;
05 34 43.41;-05 30 06.97; 3.585;-0.439; 1.321;-1.56; 0.577; 6.587; 0.600; 6.593;99
05 34 49.57;-05 29 03.38; 3.560;-0.296; 2.769;-0.41; 0.423; 6.170; 0.410; 6.175;99
05 35 30.49;-05 28 30.55; 3.551;-0.359; 2.307;-0.46; 0.385; 6.191; 0.365; 6.140;99
05 35 05.70;-05 25 04.13; 3.551; 0.102; 4.722;-0.46; 0.382; 5.823; 0.365; 5.158;99
05 35 18.84;-05 14 45.62; 3.543;-0.339; 1.785;-1.37; 0.355; 6.140; 0.320; 5.920;
05 35 20.94;-05 40 14.37; 3.507;-0.222; 2.226;-1.27; 0.255; 5.613; 0.160; 5.347;
05 35 20.61;-05 24 46.48; 3.551;-0.221; 2.378;-5.00; 0.387; 6.072; 0.365; 5.890;99
05 34 32.66;-05 21 07.41; 3.560;-0.541; 0.733;-2.76; 0.420; 6.457; 0.410; 6.351;99
05 35 07.68;-05 36 58.76; 3.505;-0.026; 3.187;-1.68; 0.250; 4.942; 0.162; 5.000;98
05 35 21.26;-05 42 12.38; 3.543;-0.362; 2.182;-0.52; 0.355; 6.160; 0.320; 5.936;
05 35 09.59;-05 28 22.82; 3.569;-0.226; 2.946;-0.53; 0.465; 6.149; 0.465; 6.113;99
05 34 56.51;-05 27 51.02; 3.551;-0.549; 0.685;-5.00; 0.380; 6.392; 0.365; 6.267;99
05 35 33.16;-05 14 10.53; 3.533;-0.327; 1.798;-1.74; 0.325; 6.117; 0.275; 5.806;
05 35 13.60;-05 24 25.73; 3.577;-0.534; 0.832;-5.00; 0.515; 6.619; 0.535; 6.587;98
05 33 56.78;-05 21 33.47; 3.513;-0.621; 0.133;-5.00; 0.255; 6.313; 0.185; 5.882;
05 34 52.77;-05 27 55.20; 3.577;-0.278; 2.435;-0.79; 0.510; 6.273; 0.525; 6.245;99
05 35 03.16;-05 18 30.00; 3.560;-0.569; 0.627;-2.64; 0.417; 6.489; 0.410; 6.393;99
05 34 45.19;-05 10 47.61; 3.533;-0.671; 0.000;-2.47; 0.313; 6.416; 0.275; 6.195; 0
05 35 19.11;-05 23 26.94; 3.597;-0.491; 2.518;-0.22; 0.695; 6.830; 0.685; 6.773;99
05 35 27.20;-05 30 24.71; 3.485;-0.487; 0.662;-2.24; 0.198; 5.577; 0.102; 5.257;
05 35 17.54;-05 40 48.36; 3.528;-0.462; 1.123;-1.68; 0.303; 6.210; 0.250; 5.899;
05 35 33.61;-05 28 50.68; 3.495;-0.530; 0.513;-3.02; 0.215; 6.168; 0.130; 5.406;99
05 35 32.91;-05 16 05.22; 3.624;-0.003; 3.658;-5.00; 0.920; 6.391; 0.935; 6.417;99
05 35 21.03;-05 28 09.11; 3.597;-0.358; 1.861;-1.50; 0.678; 6.612; 0.690; 6.608;98
05 35 28.90;-05 35 06.83; 3.533;-0.652; 0.138;-4.11; 0.315; 6.400; 0.275; 6.175;99
05 35 24.45;-05 26 31.39; 3.515;-0.114; 3.240;-0.72; 0.273; 5.536; 0.183; 5.309;99
05 35 13.80;-05 30 24.44; 3.542;-0.540; 0.840;-1.66; 0.347; 6.329; 0.320; 6.180;99
05 34 50.50;-05 23 35.34; 3.569;-0.644; 0.550;-0.91; 0.463; 6.683; 0.475; 6.637;99
05 35 04.50;-05 26 04.29; 3.533;-0.427; 1.377;-2.56; 0.322; 6.189; 0.275; 5.912;99
05 35 39.65;-05 27 50.26; 3.515;-0.652; 0.121;-5.00; 0.257; 6.338; 0.190; 5.941;99
05 35 15.93;-05 22 21.05; 3.609;-0.302; 2.194;-5.00; 0.798; 6.694; 0.785; 6.681; 0
05 35 02.11;-05 15 37.46; 3.533;-0.704; 0.000;-5.00; 0.313; 6.456; 0.275; 6.223;
05 35 56.72;-05 25 26.33; 3.639;-0.730; 0.000;-5.00; 0.743; 7.685; 0.710; 7.608; 0
05 35 13.46;-05 17 10.35; 3.569;-0.063; 3.489;-2.29; 0.465; 5.998; 0.465; 5.859;99
05 35 28.04;-05 17 20.29; 3.515;-0.536; 0.790;-3.47; 0.265; 6.251; 0.190; 5.814;99
05 34 55.06;-05 25 29.54; 3.533;-0.465; 1.278;-2.15; 0.320; 6.221; 0.275; 5.934;99
05 35 46.62;-05 22 24.25; 3.505;-0.674; 0.000;-5.00; 0.230; 6.346; 0.162; 5.821;99
05 35 18.29;-05 28 46.17; 3.543;-0.459; 1.370;-1.72; 0.352; 6.249; 0.320; 6.112;
05 35 01.49;-05 28 20.72; 3.542;-0.497; 1.192;-1.54; 0.350; 6.289; 0.320; 6.138;99
05 34 09.02;-05 24 05.70; 3.543;-0.719; 0.000;-5.00; 0.343; 6.529; 0.320; 6.338;
05 35 29.85;-05 23 48.40; 3.551;-0.305; 2.868;-0.46; 0.387; 6.143; 0.365; 5.966;99
05 35 30.42;-05 34 38.61; 3.505;-0.509; 0.911;-1.94; 0.240; 6.196; 0.160; 5.605;
05 35 05.76;-05 33 55.89; 3.533;-0.152; 3.411;-0.58; 0.322; 6.019; 0.270; 5.579;99
05 35 21.36;-05 23 45.48; 3.609;-0.442; 1.641;-1.23; 0.813; 6.929; 0.775; 6.839;99
05 35 10.31;-05 21 13.07; 3.609;-0.190; 4.757;-0.17; 0.775; 6.504; 0.790; 6.529;99
05 35 19.06;-05 23 49.68; 3.713;-0.220; 2.705;-5.00; 0.955; 7.564; 0.905; 7.546;99
05 34 31.69;-05 28 26.85; 3.551;-0.603; 0.672;-5.00; 0.380; 6.464; 0.365; 6.310;99
05 35 37.58;-05 27 16.40; 3.624;-0.209; 3.927;-0.29; 0.960; 6.725; 0.910; 6.724;99
05 35 17.35;-05 42 14.61; 3.551;-0.352; 2.650;-0.46; 0.385; 6.191; 0.365; 6.134;
05 35 36.79;-05 37 46.52; 3.515;-0.700; 0.000;-5.00; 0.255; 6.379; 0.190; 6.000;99
05 35 41.32;-05 27 50.39; 3.533;-0.619; 0.869;-0.70; 0.315; 6.362; 0.275; 6.145;99
05 35 56.41;-05 16 31.88; 3.533;-0.720; 0.000;-5.00; 0.310; 6.473; 0.275; 6.239;98
05 35 15.77;-05 32 59.27; 3.569;-0.662; 0.474;-1.70; 0.463; 6.699; 0.475; 6.652;99
05 35 31.79;-05 29 34.09; 3.515;-0.613; 0.534;-1.48; 0.260; 6.309; 0.190; 5.899;99
05 35 25.72;-05 26 41.73; 3.577;-0.475; 1.562;-1.10; 0.515; 6.542; 0.535; 6.513;89
05 34 24.78;-05 22 10.41; 3.569;-0.606; 0.786;-1.59; 0.463; 6.618; 0.475; 6.583;
05 35 26.18;-05 30 18.11; 3.542;-0.383; 2.005;-0.97; 0.355; 6.180; 0.320; 5.950;99
05 35 19.20;-05 22 50.71; 3.591;-0.296; 2.400;-5.00; 0.615; 6.446; 0.640; 6.461;
05 34 03.72;-05 22 18.80; 3.533;-0.661; 0.341;-5.00; 0.313; 6.403; 0.275; 6.185;
05 34 45.88;-05 41 09.68; 3.515;-0.407; 1.583;-2.46; 0.270; 6.029; 0.188; 5.661;
05 35 10.14;-05 22 32.67; 3.553;-0.538; 1.081;-5.00; 0.387; 6.396; 0.375; 6.277;
05 35 05.50;-05 27 52.18; 3.560;-0.540; 1.215;-1.10; 0.420; 6.457; 0.410; 6.351;99
05 35 24.47;-05 11 58.10; 3.509;-0.433; 1.436;-1.99; 0.255; 5.972; 0.170; 5.567;
05 34 59.57;-05 24 00.21; 3.542;-0.533; 1.117;-1.54; 0.350; 6.326; 0.320; 6.171;99
05 35 27.66;-05 42 55.29; 3.522;-0.724; 0.000;-5.00; 0.275; 6.415; 0.220; 6.127;
05 35 13.48;-05 30 48.14; 3.524;-0.641; 0.466;-1.96; 0.287; 6.354; 0.230; 6.051;99
05 35 25.71;-05 23 09.35; 3.597;-0.267; 2.598;-5.00; 0.670; 6.478; 0.690; 6.492;99
05 35 19.79;-05 30 37.60; 3.495;-0.316; 2.034;-1.29; 0.228; 5.475; 0.127; 5.272;
05 34 58.80;-05 21 17.63; 3.639;-0.016; 4.280;-0.66; 1.128; 6.608; 1.055; 6.559;99
05 34 57.45;-05 30 42.05; 3.542;-0.743; 0.021;-5.00; 0.340; 6.562; 0.320; 6.375;99
05 35 13.53;-05 27 28.56; 3.533;-0.418; 1.711;-2.17; 0.322; 6.189; 0.275; 5.904;99
05 35 22.80;-05 31 37.27; 3.551;-0.560; 1.068;-1.66; 0.380; 6.406; 0.365; 6.273;99
05 34 35.94;-05 15 24.06; 3.533;-0.743; 0.000;-5.00; 0.310; 6.501; 0.275; 6.257;99
05 35 18.23;-05 23 15.61; 3.551;-0.761; 0.000;-5.00; 0.370; 6.646; 0.365; 6.529;99
05 34 31.14;-05 21 55.87; 3.569;-0.442; 1.731;-5.00; 0.465; 6.403; 0.470; 6.342;99
05 35 25.68;-05 30 38.11; 3.515;-0.238; 2.730;-1.08; 0.273; 5.813; 0.185; 5.558;99
05 35 15.47;-05 27 22.65; 3.542;-0.390; 1.944;-5.00; 0.355; 6.190; 0.320; 5.956;99
05 35 20.99;-05 16 37.60; 3.624;-0.020; 4.113;-1.02; 0.930; 6.434; 0.935; 6.436;99
05 35 01.17;-05 29 55.22; 3.530;-0.729; 0.122;-5.00; 0.298; 6.460; 0.255; 6.213;
05 35 06.60;-05 26 50.87; 3.505;-0.341; 2.091;-1.26; 0.250; 5.722; 0.157; 5.470;99
05 35 13.62;-05 19 54.86; 3.631; 0.610; 7.295;-5.00; 1.028; 5.745; 1.030; 5.497; 0
05 35 34.70;-05 34 38.18; 3.533;-0.761; 0.000;-5.00; 0.308; 6.518; 0.275; 6.279;99
05 34 41.71;-05 26 52.99; 3.533;-0.651; 0.599;-1.91; 0.315; 6.400; 0.275; 6.175;95
05 35 05.14;-05 20 24.47; 3.544;-0.500; 1.483;-1.47; 0.357; 6.303; 0.330; 6.163;
05 35 09.85;-05 19 33.99; 3.524;-0.006; 4.343;-0.65; 0.292; 5.133; 0.210; 5.151;99
05 35 43.44;-05 40 55.07; 3.553;-0.709; 0.400;-5.00; 0.380; 6.602; 0.375; 6.494;
05 35 29.90;-05 12 10.36; 3.495;-0.716; 0.021;-5.00; 0.198; 6.365; 0.135; 5.699;99
05 35 04.77;-05 17 42.17; 3.639; 0.068; 5.323;-0.39; 1.135; 6.492; 1.090; 6.434;99
05 35 26.30;-05 27 43.88; 3.524;-0.733; 0.148;-5.00; 0.280; 6.438; 0.230; 6.157;99
05 35 24.64;-05 19 09.66; 3.524;-0.260; 2.682;-1.46; 0.295; 6.039; 0.225; 5.658;99
05 34 56.40;-05 38 05.22; 3.495;-0.723; 0.000;-5.00; 0.198; 6.365; 0.132; 5.694;99
05 34 57.24;-05 42 02.77; 3.543;-0.736; 0.243;-5.00; 0.340; 6.547; 0.320; 6.362;
05 35 17.94;-05 25 33.87; 3.537;-0.363; 2.671;-0.56; 0.335; 6.151; 0.295; 5.898;
05 35 04.61;-05 26 22.97; 3.533;-0.338; 2.342;-1.45; 0.325; 6.125; 0.275; 5.818;99
05 34 17.43;-05 30 35.22; 3.537;-0.778; 0.009;-5.00; 0.320; 6.559; 0.295; 6.347;
05 35 30.96;-05 25 43.84; 3.495;-0.420; 1.663;-1.57; 0.222; 5.622; 0.130; 5.366;99
05 34 38.10;-05 27 40.53; 3.533;-0.778; 0.000;-5.00; 0.308; 6.532; 0.280; 6.304;99
05 34 58.90;-05 28 03.30; 3.533;-0.778; 0.000;-5.00; 0.308; 6.532; 0.280; 6.304;99
05 34 40.81;-05 26 38.72; 3.560;-0.657; 0.877;-1.05; 0.415; 6.600; 0.410; 6.520;99
05 35 22.28;-05 35 26.78; 3.495;-0.697; 0.171;-5.00; 0.200; 6.351; 0.132; 5.661;99
05 34 26.51;-05 23 23.94; 3.515;-0.328; 2.364;-1.27; 0.273; 5.913; 0.185; 5.601;
05 35 05.38;-05 24 10.49; 3.585;-0.118; 4.036;-0.61; 0.565; 6.150; 0.580; 6.114;99
05 35 17.68;-05 32 02.42; 3.515;-0.698; 0.356;-2.29; 0.255; 6.379; 0.190; 6.000;99
05 35 29.99;-05 12 27.41; 3.515;-0.142; 3.601;-0.72; 0.273; 5.637; 0.183; 5.379;99
05 35 07.27;-05 22 26.58; 3.533;-0.366; 2.221;-5.00; 0.322; 6.145; 0.275; 5.852;99
05 35 01.30;-05 20 16.90; 3.542;-0.758; 0.221;-5.00; 0.340; 6.577; 0.320; 6.388;96
05 35 10.88;-05 28 00.71; 3.505;-0.686; 0.387;-2.40; 0.228; 6.355; 0.162; 5.841;99
05 34 17.23;-05 29 04.26; 3.505;-0.075; 3.651;-1.48; 0.250; 5.060; 0.157; 5.000;
05 35 35.35;-05 11 11.48; 3.505;-0.706; 0.299;-5.00; 0.225; 6.365; 0.162; 5.901;99
05 35 16.33;-05 15 38.01; 3.577;-0.380; 2.321;-5.00; 0.510; 6.400; 0.530; 6.382;99
05 35 33.32;-05 39 24.91; 3.550;-0.684; 0.682;-1.95; 0.368; 6.541; 0.355; 6.397;
05 35 13.25;-05 27 54.19; 3.551; 0.043; 4.539;-1.46; 0.385; 5.905; 0.365; 5.221;99
05 35 17.52;-05 17 40.13; 3.675; 1.064; 9.905;-5.00; 2.365; 5.811;      ;      ;99
05 35 14.91;-05 36 39.20; 3.524;-0.634; 0.844;-1.84; 0.285; 6.344; 0.230; 6.051;99
05 35 35.15;-05 21 23.70; 3.546;-0.570; 1.548;-0.77; 0.363; 6.388; 0.340; 6.241;
05 35 31.68;-05 30 04.12; 3.476;-0.296; 2.306;-1.50; 0.180; 5.026;      ;      ;99
05 35 03.09;-05 22 37.84; 3.476;-0.090; 3.334;-5.00; 0.183; 4.677;      ;      ;99
05 35 17.44;-05 30 25.40; 3.546;-0.741; 0.392;-2.30; 0.352; 6.575; 0.340; 6.429;
05 33 53.08;-05 35 15.80; 3.507;-0.615; 0.837;-2.80; 0.237; 6.309; 0.168; 5.782;
05 35 15.34;-05 19 02.29; 3.495;-0.756; 0.000;-2.96; 0.195; 6.386; 0.132; 5.753;99
05 34 58.20;-05 11 53.61; 3.495;-0.664; 0.512;-5.00; 0.203; 6.336; 0.132; 5.624;99
05 35 40.08;-05 27 58.93; 3.551;-0.570; 1.387;-1.53; 0.380; 6.420; 0.365; 6.279;64
05 35 18.53;-05 18 20.67; 3.542;-0.721; 0.516;-5.00; 0.340; 6.532; 0.320; 6.338;99
05 35 21.62;-05 34 58.41; 3.543;-0.794; 0.146;-5.00; 0.335; 6.613; 0.320; 6.443;
05 35 36.36;-05 31 37.89; 3.505;-0.592; 1.133;-1.10; 0.235; 6.286; 0.162; 5.716;
05 35 44.17;-05 36 39.81; 3.485;-0.454; 1.591;-2.00; 0.200; 5.517; 0.102; 5.243;99
05 35 21.31;-05 24 11.49; 3.577;-0.702; 0.750;-5.00; 0.515; 6.861; 0.540; 6.833;99
05 34 26.75;-05 41 57.38; 3.535;-0.704; 0.626;-2.38; 0.317; 6.463; 0.285; 6.243;
05 34 37.10;-05 31 08.89; 3.533;-0.230; 3.568;-0.58; 0.325; 6.063; 0.270; 5.690;99
05 35 00.25;-05 18 50.93; 3.585;-0.416; 2.304;-1.52; 0.577; 6.557; 0.600; 6.549;95
05 34 58.28;-05 25 33.25; 3.495;-0.382; 2.086;-1.55; 0.225; 5.561; 0.127; 5.328;99
05 34 27.81;-05 42 10.21; 3.543;-0.814; 0.075;-5.00; 0.335; 6.644; 0.320; 6.470;
05 35 22.44;-05 22 01.11; 3.675;-0.337; 4.766;-0.15; 0.935; 7.450; 0.905; 7.417;99
05 36 00.30;-05 34 23.58; 3.515;-0.806; 0.000;-5.00; 0.245; 6.457; 0.190; 6.129;99
05 35 16.94;-05 25 46.97; 3.542;-0.661; 0.900;-5.00; 0.345; 6.468; 0.320; 6.276;99
05 35 09.69;-05 21 25.03; 3.524;-0.817; 0.000;-2.95; 0.275; 6.516; 0.230; 6.237;99
05 35 13.65;-05 28 46.26; 3.543;-0.271; 3.066;-1.13; 0.355; 6.095; 0.320; 5.843;
05 35 13.30;-05 20 18.99; 3.542;-0.050; 4.123;-5.00; 0.355; 5.960; 0.315; 5.364;
05 34 51.43;-05 13 29.48; 3.495;-0.781; 0.000;-5.00; 0.192; 6.393; 0.132; 5.809;98
05 35 31.20;-05 12 28.06; 3.533;-0.831; 0.000;-5.00; 0.303; 6.596; 0.280; 6.362;99
05 34 50.86;-05 29 25.09; 3.505;-0.744; 0.294;-3.26; 0.222; 6.393; 0.162; 5.957;99
05 35 12.71;-05 16 13.50; 3.533;-0.553; 1.483;-5.00; 0.317; 6.300; 0.275; 6.084;99
05 34 38.22;-05 24 23.73; 3.524;-0.692; 0.833;-1.29; 0.282; 6.401; 0.230; 6.110;99
05 35 18.22;-05 25 35.10; 3.569;-0.868; 0.000;-5.00; 0.455; 6.988; 0.480; 6.955; 0
05 35 02.16;-05 29 09.86; 3.551;-0.587; 1.477;-1.56; 0.380; 6.435; 0.365; 6.296;98
05 35 30.33;-05 27 37.06; 3.533;-0.847; 0.000;-5.00; 0.303; 6.611; 0.280; 6.389;99
05 34 51.80;-05 21 39.07; 3.524;-0.790; 0.262;-2.91; 0.275; 6.490; 0.230; 6.210;99
05 34 52.02;-05 24 18.81; 3.524;-0.669; 0.913;-2.11; 0.285; 6.377; 0.230; 6.086;99
05 34 57.79;-05 22 51.18; 3.533;-0.638; 1.586;-0.58; 0.315; 6.387; 0.275; 6.165;99
05 35 05.07;-05 36 43.87; 3.505;-0.592; 1.224;-1.60; 0.235; 6.286; 0.162; 5.716;99
05 35 07.54;-05 11 14.35; 3.638; 0.050; 5.034;-0.93; 1.130; 6.515; 1.080; 6.465;
05 35 35.62;-05 29 36.51; 3.507;-0.725; 0.532;-1.84; 0.230; 6.380; 0.170; 5.953;
05 34 52.26;-05 12 03.24; 3.533;-0.846; 0.049;-5.00; 0.303; 6.611; 0.280; 6.389;99
05 35 19.60;-05 23 57.22; 3.597;-0.738; 1.089;-0.69; 0.697; 7.248; 0.640; 7.118;99
05 35 22.33;-05 33 55.95; 3.505;-0.637; 1.010;-1.93; 0.233; 6.321; 0.162; 5.773;98
05 35 52.33;-05 12 57.03; 3.515;-0.624; 1.145;-2.12; 0.260; 6.318; 0.190; 5.909;
05 35 25.48;-05 21 35.55; 3.624;-0.366; 3.090;-0.66; 0.933; 6.995; 0.870; 6.912;80
05 34 15.66;-05 32 24.10; 3.543;-0.786; 0.468;-5.00; 0.338; 6.610; 0.320; 6.429;
05 35 15.71;-05 26 28.26; 3.560;-0.460; 2.418;-0.94; 0.420; 6.355; 0.410; 6.274;99
05 35 59.48;-05 37 09.67; 3.507;-0.532; 1.635;-1.88; 0.245; 6.245; 0.168; 5.678;
05 34 42.86;-05 25 16.44; 3.690; 0.097; 5.849;-0.46; 1.317; 7.020; 1.253; 6.963;99
05 35 06.84;-05 10 38.42; 3.495;-0.665; 0.818;-5.00; 0.203; 6.336; 0.132; 5.624;99
05 35 04.82;-05 22 38.79; 3.505;-0.770; 0.369;-2.18; 0.220; 6.403; 0.162; 5.986;99
05 34 13.88;-05 36 35.38; 3.507;-0.683; 0.857;-1.91; 0.233; 6.352; 0.168; 5.901;
05 35 23.66;-05 26 26.99; 3.533;-0.780; 0.515;-1.80; 0.308; 6.532; 0.275; 6.301;99
05 35 20.83;-05 21 30.11; 3.505;-0.647; 1.034;-5.00; 0.230; 6.330; 0.162; 5.787;99
05 34 40.83;-05 28 09.44; 3.495;-0.448; 2.059;-1.42; 0.222; 5.695; 0.130; 5.375;99
05 35 46.83;-05 16 46.84; 3.690;-0.192; 3.810;-1.30; 1.015; 7.379; 0.990; 7.318; 0
05 35 20.41;-05 17 14.49; 3.569;-0.059; 4.472;-1.57; 0.468; 5.997; 0.465; 5.851;99
05 35 49.04;-05 15 37.78; 3.533;-0.885; 0.000;-5.00; 0.298; 6.658; 0.280; 6.443;99
05 34 52.34;-05 30 07.98; 3.515;-0.766; 0.532;-2.28; 0.250; 6.434; 0.190; 6.078;
05 35 12.83;-05 39 07.78; 3.585;-0.563; 1.852;-1.85; 0.585; 6.782; 0.605; 6.770;99
05 35 35.95;-05 38 42.72; 3.520;-0.778; 0.513;-3.41; 0.265; 6.466; 0.210; 6.158;
05 35 57.52;-05 39 51.37; 3.543;-0.677; 1.142;-5.00; 0.345; 6.482; 0.320; 6.289;
05 36 05.21;-05 41 39.34; 3.533;-0.778; 0.593;-2.39; 0.308; 6.532; 0.280; 6.304;
05 34 58.03;-05 17 37.70; 3.585;-0.461; 2.486;-1.24; 0.577; 6.619; 0.600; 6.625;99
05 35 15.75;-05 21 39.91; 3.533;-0.663; 1.244;-1.59; 0.315; 6.413; 0.275; 6.185;99
05 35 01.34;-05 20 22.20; 3.597;-0.232; 3.966;-0.67; 0.665; 6.428; 0.690; 6.453;93
05 34 48.77;-05 19 07.30; 3.515;-0.664; 1.120;-2.71; 0.257; 6.348; 0.190; 5.956;99
05 35 26.73;-05 16 45.15; 3.513;-0.865; 0.056;-5.00; 0.235; 6.506; 0.185; 6.169;
05 35 42.62;-05 26 08.21; 3.485;-0.714; 0.636;-5.00; 0.175; 6.292; 0.105; 5.523;99
05 35 15.39;-05 21 14.02; 3.542;-0.579; 1.715;-5.00; 0.347; 6.368; 0.320; 6.205;98
05 34 07.97;-05 36 17.07; 3.524;-0.313; 3.445;-0.65; 0.295; 6.076; 0.225; 5.694;
05 35 15.49;-05 35 11.93; 3.541;-0.463; 2.434;-1.23; 0.347; 6.245; 0.310; 6.091;
05 35 24.09;-05 21 32.73; 3.533;-0.352; 3.373;-0.58; 0.322; 6.137; 0.275; 5.841;99
05 35 04.67;-05 29 36.14; 3.524;-0.860; 0.194;-2.83; 0.270; 6.556; 0.230; 6.277;99
05 35 44.53;-05 36 33.25; 3.485;-0.633; 1.120;-1.99; 0.183; 6.180; 0.105; 5.321;99
05 33 57.91;-05 36 26.91; 3.533;-0.858; 0.260;-5.00; 0.300; 6.629; 0.280; 6.402;
05 35 54.77;-05 10 55.58; 3.780;-0.239; 3.369;-5.00;      ;      ;      ;      ;73
05 34 29.54;-05 23 43.74; 3.690;      ; 9.071; 0.00;      ;      ;      ;      ; 0
05 35 06.28;-05 22 02.66; 3.639; 0.283; 6.388;-5.00; 1.120; 6.187; 1.155; 6.165;99
05 34 33.72;-05 40 22.76; 3.503;-0.437; 2.387;-1.29; 0.240; 5.836; 0.153; 5.482;
05 35 30.70;-05 18 07.17; 3.553;-0.422; 2.742;-1.28; 0.390; 6.270; 0.375; 6.204;
05 35 16.00;-05 21 47.05; 3.485;-0.831; 0.102;-5.00; 0.165; 6.410; 0.108; 5.689;99
05 35 47.65;-05 37 38.83; 3.476;-0.565; 1.488;-1.52; 0.165; 5.406;      ;      ;99
05 34 35.76;-05 40 09.42; 3.543;-0.657; 1.467;-1.33; 0.345; 6.453; 0.320; 6.266;
05 35 11.77;-05 21 55.52; 3.507;-0.852; 0.213;-5.00; 0.220; 6.473; 0.170; 6.098;
05 35 33.11;-05 17 34.02; 3.507;-0.627; 1.451;-1.53; 0.237; 6.317; 0.168; 5.796;
05 35 07.64;-05 24 00.68; 3.524;-0.507; 2.554;-0.65; 0.290; 6.240; 0.230; 5.896;99
05 35 17.67;-05 23 41.02; 3.478;-0.856; 0.000;-5.00; 0.145; 6.263; 0.100; 5.675;
05 35 21.97;-05 17 04.97; 3.505;-0.585; 1.642;-2.12; 0.235; 6.286; 0.162; 5.716;
05 35 19.29;-05 16 44.77; 3.524;-0.923; 0.040;-1.56; 0.265; 6.625; 0.235; 6.359;99
05 34 35.20;-05 34 32.23; 3.515;-0.409; 2.979;-0.72; 0.270; 6.029; 0.188; 5.661;84
05 34 56.84;-05 21 36.38; 3.609; 0.049; 5.753;-0.57; 0.743; 6.150; 0.785; 6.158;99
05 34 48.96;-05 28 16.94; 3.524;-0.388; 3.226;-0.65; 0.295; 6.138; 0.230; 5.781;99
05 36 07.39;-05 30 27.47; 3.524;-0.507; 2.215;-2.13; 0.290; 6.240; 0.230; 5.896;
05 34 54.40;-05 17 21.17; 3.495;-0.755; 0.700;-2.71; 0.195; 6.379; 0.135; 5.757;99
05 35 33.85;-05 38 20.69; 3.524;-0.846; 0.449;-2.37; 0.273; 6.543; 0.230; 6.267;99
05 35 22.06;-05 28 15.16; 3.569;-0.378; 3.963;-0.36; 0.468; 6.330; 0.470; 6.264;99
05 35 21.72;-05 26 44.28; 3.542;-0.671; 1.561;-1.17; 0.343; 6.471; 0.320; 6.289;98
05 35 12.27;-05 20 45.28; 3.528;-0.324; 3.222;-5.00; 0.305; 6.114; 0.245; 5.736;
05 35 24.60;-05 11 29.61; 3.624; 0.159; 6.493;-0.49; 0.908; 6.174; 0.965; 6.189;99
05 35 23.04;-05 29 41.49; 3.515;-0.687; 1.365;-1.16; 0.255; 6.369; 0.190; 5.985;99
05 35 21.84;-05 22 08.32; 3.551;-0.737; 1.297;-1.07; 0.373; 6.627; 0.365; 6.501;99
05 34 52.92;-05 28 59.09; 3.524;-0.671; 1.796;-0.65; 0.285; 6.377; 0.230; 6.086;99
05 35 15.95;-05 16 57.53; 3.532;-0.334; 3.215;-2.45; 0.317; 6.122; 0.265; 5.800;
05 34 21.23;-05 35 34.80; 3.507;-0.801; 0.634;-2.29; 0.225; 6.430; 0.170; 6.048;
05 35 11.21;-05 17 20.98; 3.569;-0.088; 5.307;-0.45; 0.465; 6.018; 0.465; 5.878;99
05 35 08.30;-05 24 34.92; 3.503;-0.520; 2.189;-1.13; 0.235; 6.220; 0.153; 5.566;
05 35 48.73;-05 19 27.45; 3.524;-0.752; 1.021;-1.90; 0.278; 6.451; 0.230; 6.181;99
05 34 35.70;-05 29 51.97; 3.515;-0.918; 0.082;-5.00; 0.235; 6.556; 0.192; 6.246;99
05 35 13.57;-05 27 57.24; 3.507;-0.555; 2.000;-1.33; 0.243; 6.259; 0.168; 5.704;
05 35 04.61;-05 24 42.46; 3.551;-0.535; 2.270;-5.00; 0.380; 6.378; 0.365; 6.261;99
05 34 51.21;-05 16 54.86; 3.533;-0.348; 3.236;-1.46; 0.325; 6.133; 0.275; 5.830;99
05 35 17.36;-05 20 14.93; 3.577;-0.537; 2.378;-1.48; 0.512; 6.623; 0.535; 6.601;97
05 35 13.83;-05 27 36.85; 3.515;-0.518; 2.264;-1.40; 0.265; 6.241; 0.190; 5.801;99
05 35 55.46;-05 13 55.72; 3.914; 0.251; 5.143;-5.00;      ;      ;      ;      ;80
05 35 38.35;-05 28 34.67; 3.524;-0.717; 1.226;-2.15; 0.282; 6.425; 0.230; 6.145;99
05 34 35.68;-05 35 52.15; 3.537;-0.896; 0.340;-5.00; 0.308; 6.693; 0.295; 6.494;
05 35 15.59;-05 34 46.72; 3.495;-0.396; 2.757;-1.36; 0.225; 5.584; 0.130; 5.354;99
05 35 11.66;-05 31 01.13; 3.507;-0.529; 2.261;-1.05; 0.245; 6.231; 0.168; 5.678;
05 35 17.15;-05 41 53.88; 3.505;-0.703; 1.221;-1.63; 0.228; 6.364; 0.162; 5.901;
05 35 23.31;-05 28 10.09; 3.524;-0.612; 1.802;-2.18; 0.287; 6.321; 0.230; 6.026;99
05 35 15.95;-05 41 11.48; 3.509;-0.788; 0.830;-1.49; 0.230; 6.429; 0.175; 6.046;
05 35 50.19;-05 21 16.92; 3.533;-0.713; 1.374;-1.41; 0.310; 6.460; 0.275; 6.231;99
05 35 10.57;-05 33 13.65; 3.495;-0.550; 1.931;-1.86; 0.213; 6.231; 0.130; 5.415;99
05 34 50.99;-05 17 56.49; 3.485;-0.888; 0.075;-5.00; 0.160; 6.442; 0.105; 5.845;99
05 35 21.62;-05 26 57.55; 3.507;-0.303; 3.605;-0.79; 0.255; 5.729; 0.162; 5.475;
05 34 20.80;-05 23 29.16; 3.524;-0.841; 0.650;-1.63; 0.273; 6.543; 0.230; 6.257;
05 34 46.56;-05 23 25.60; 3.551;-0.394; 3.762;-0.46; 0.385; 6.227; 0.365; 6.161;99
05 35 18.95;-05 22 18.74; 3.609;-0.591; 2.135;-5.00; 0.800; 7.172; 0.750; 7.115;
05 35 10.74;-05 26 27.99; 3.524;-0.683; 1.880;-0.65; 0.282; 6.390; 0.230; 6.098;99
05 34 58.25;-05 41 49.82; 3.577;-0.228; 4.179;-1.04; 0.512; 6.217; 0.525; 6.184;
05 35 46.24;-05 15 39.82; 3.551;-0.427; 3.034;-1.27; 0.385; 6.264; 0.365; 6.188;99
05 35 11.17;-05 19 35.87; 3.513;-0.589; 1.922;-5.00; 0.257; 6.294; 0.185; 5.852;
05 35 17.00;-05 15 44.30; 3.513;-0.330; 3.317;-1.78; 0.268; 5.865; 0.180; 5.577;
05 34 14.88;-05 14 18.38; 3.542;-0.845; 0.768;-2.08; 0.333; 6.677; 0.320; 6.511;
05 35 25.22;-05 29 51.60; 3.509;-0.774; 0.970;-1.79; 0.233; 6.418; 0.175; 6.033;
05 35 07.95;-05 21 17.27; 3.524;-0.916; 0.428;-1.12; 0.265; 6.611; 0.235; 6.346;99
05 35 22.37;-05 27 28.30; 3.505;-0.300; 3.694;-0.81; 0.250; 5.673; 0.157; 5.429;99
05 35 25.46;-05 34 02.49; 3.495;-0.810; 0.673;-2.54; 0.190; 6.409; 0.135; 5.921;99
05 35 14.45;-05 17 25.50; 3.569;-0.190; 4.395;-1.20; 0.465; 6.114; 0.465; 6.089;99
05 35 52.20;-05 39 24.73; 3.547;-0.679; 1.701;-1.97; 0.360; 6.520; 0.345; 6.365;
05 35 33.41;-05 39 21.32; 3.537;-0.880; 0.602;-3.07; 0.310; 6.675; 0.295; 6.480;
05 34 50.86;-05 39 29.21; 3.507;-0.708; 1.334;-5.00; 0.233; 6.370; 0.168; 5.927;
05 34 48.78;-05 17 46.42; 3.524;-0.186; 4.316;-1.12; 0.295; 5.979; 0.220; 5.591;99
05 35 20.57;-05 20 43.27; 3.533;-0.410; 3.118;-1.57; 0.322; 6.180; 0.275; 5.896;
05 35 08.02;-05 36 46.69; 3.524;-0.876; 0.615;-2.18; 0.270; 6.584; 0.235; 6.300;99
05 34 29.49;-05 13 55.20; 3.631;-0.795; 5.304;-0.05; 0.715; 7.721; 0.685; 7.625;96
05 35 21.88;-05 17 03.49; 3.511;-0.801; 0.933;-5.00; 0.235; 6.449; 0.180; 6.082;
05 35 06.54;-05 25 01.45; 3.515;-0.810; 0.911;-5.00; 0.245; 6.469; 0.190; 6.129;99
05 35 18.20;-05 16 34.06; 3.505;-0.887; 0.435;-5.00; 0.210; 6.486; 0.162; 6.113;99
05 35 51.77;-05 17 39.46; 3.515;-0.939; 0.239;-5.00; 0.235; 6.582; 0.192; 6.264;
05 35 13.04;-05 20 30.31; 3.624;-0.309; 3.767;-5.00; 0.947; 6.903; 0.885; 6.843;99
05 35 24.50;-05 25 01.44; 3.569;-0.562; 3.335;-0.36; 0.465; 6.570; 0.475; 6.516;99
05 35 42.29;-05 15 07.97; 3.577;-0.664; 1.960;-1.67; 0.515; 6.811; 0.540; 6.785;99
05 35 21.67;-05 21 47.06; 3.569;-0.553; 2.518;-5.00; 0.465; 6.554; 0.475; 6.502;54
05 35 17.95;-05 35 15.79; 3.533;-0.409; 3.645;-0.58; 0.322; 6.180; 0.275; 5.896;99
05 34 57.02;-05 23 00.04; 3.515;-0.840; 0.841;-2.09; 0.243; 6.493; 0.190; 6.168;99
05 36 01.39;-05 19 10.71; 3.485;-0.956; 0.000;-5.00; 0.153; 6.471; 0.110; 6.015;99
05 35 55.97;-05 42 26.38; 3.532;-0.904; 0.596;-5.00; 0.290; 6.657; 0.270; 6.436;
05 34 20.73;-05 32 35.15; 3.495;-0.971; 0.000;-5.00; 0.175; 6.497; 0.135; 6.111;
05 34 20.99;-05 24 48.55; 3.524;-0.991; 0.110;-5.00; 0.257; 6.696; 0.235; 6.438;
05 35 47.24;-05 17 43.40; 3.495;-0.894; 0.428;-5.00; 0.183; 6.456; 0.135; 6.027;99
05 34 55.60;-05 29 37.58; 3.505;-0.725; 1.435;-1.65; 0.225; 6.374; 0.162; 5.929;99
05 35 55.44;-05 23 43.02; 3.495;-0.907; 0.369;-5.00; 0.183; 6.465; 0.135; 6.039;99
05 35 16.28;-05 32 02.23; 3.485;-0.577; 2.097;-1.40; 0.190; 5.975; 0.102; 5.288;99
05 35 19.81;-05 22 21.62; 3.550;-0.951; 1.124;-0.47; 0.352; 6.880; 0.355; 6.784;
05 34 37.57;-05 43 10.66; 3.543;-0.791; 1.299;-5.00; 0.338; 6.610; 0.325; 6.446;
05 35 30.72;-05 24 31.05; 3.495;-0.388; 3.339;-0.90; 0.225; 5.584; 0.130; 5.345;99
05 34 05.96;-05 22 43.61; 3.585;-0.214; 4.472;-1.56; 0.565; 6.268; 0.590; 6.276;
05 35 46.05;-05 17 49.57; 3.515;-0.056; 5.178;-1.05; 0.273; 5.155; 0.180; 5.099;99
05 35 13.01;-05 19 04.16; 3.624;-0.366; 6.621;-0.09; 0.933; 6.995; 0.870; 6.912;
05 35 41.30;-05 38 32.98; 3.515;-0.786; 1.242;-2.33; 0.248; 6.446; 0.190; 6.103;
05 35 25.24;-05 33 21.11; 3.515;-0.198; 4.654;-0.72; 0.273; 5.766; 0.185; 5.485;99
05 35 26.46;-05 30 16.46; 3.517;-0.236; 4.475;-0.71; 0.278; 5.856; 0.190; 5.588;
05 35 21.93;-05 28 27.28; 3.524;-0.272; 4.393;-0.65; 0.295; 6.047; 0.225; 5.666;99
05 35 01.83;-05 30 19.31; 3.505;-0.964; 0.244;-5.00; 0.200; 6.543; 0.162; 6.198;99
05 35 17.98;-05 15 38.68; 3.597;-0.244; 4.996;-0.45; 0.668; 6.445; 0.690; 6.466;99
05 34 46.79;-05 21 29.15; 3.542;-0.910; 0.757;-5.00; 0.325; 6.750; 0.320; 6.598;99
05 34 56.76;-05 26 37.24; 3.485;-0.926; 0.309;-5.00; 0.155; 6.457; 0.108; 5.970;99
05 35 24.31;-05 28 44.12; 3.468;-0.489; 2.552;-1.33; 0.153; 5.178;      ;      ;99
05 35 43.00;-05 23 02.41; 3.551;-0.758; 1.788;-0.93; 0.370; 6.646; 0.365; 6.529;99
05 35 13.21;-05 20 52.82; 3.591;-0.369; 5.058;-0.25; 0.620; 6.557; 0.640; 6.555;99
05 35 31.03;-05 18 45.18; 3.476;-0.777; 1.084;-2.40; 0.147; 5.748; 0.100; 5.563;99
05 35 28.78;-05 41 34.04; 3.532;-0.931; 0.672;-2.74; 0.287; 6.686; 0.270; 6.463;
05 35 21.15;-05 18 21.39; 3.515;-0.612; 2.275;-1.83; 0.260; 6.309; 0.190; 5.899;
05 35 07.45;-05 26 40.06; 3.495;-0.831; 0.954;-5.00; 0.188; 6.424; 0.135; 5.956;99
05 35 12.78;-05 20 39.13; 3.495;-1.015; 0.000;-5.00; 0.172; 6.524; 0.135; 6.148;99
05 35 01.61;-05 24 10.16; 3.495;-0.552; 2.496;-1.35; 0.213; 6.231; 0.130; 5.415;99
05 35 23.96;-05 19 07.62; 3.524;-0.722; 1.848;-1.22; 0.280; 6.426; 0.230; 6.145;99
05 35 03.97;-05 18 59.90; 3.515;-0.669; 2.047;-1.47; 0.257; 6.358; 0.190; 5.956;99
05 35 12.70;-05 27 10.53; 3.472;-0.680; 1.602;-5.00; 0.147; 5.485;      ;      ;99
05 35 18.26;-05 29 53.79; 3.524;-0.152; 5.155;-0.65; 0.295; 5.925; 0.220; 5.531;99
05 35 09.28;-05 16 56.08; 3.548;-1.081; 0.000;-5.00; 0.333; 7.019; 0.350; 6.977;
05 35 06.15;-05 19 55.60; 3.515;-0.551; 2.705;-1.27; 0.262; 6.263; 0.190; 5.837;99
05 34 59.19;-05 23 07.84; 3.495;-0.350; 3.679;-1.03; 0.228; 5.536; 0.127; 5.300;99
05 35 16.26;-05 31 00.74; 3.505;-0.809; 1.226;-1.75; 0.218; 6.433; 0.162; 6.026;99
05 35 07.84;-05 29 17.45; 3.524;-0.835; 1.195;-5.00; 0.273; 6.543; 0.230; 6.257;99
05 35 31.56;-05 16 36.90; 3.483;-0.816; 0.996;-5.00; 0.162; 6.379; 0.102; 5.607;
05 35 48.71;-05 42 14.45; 3.517;-0.971; 0.449;-5.00; 0.237; 6.622; 0.198; 6.311;
05 35 26.18;-05 25 20.36; 3.515;-0.954; 0.532;-5.00; 0.233; 6.595; 0.192; 6.274;
05 34 57.15;-05 33 29.53; 3.515;-0.423; 3.417;-1.26; 0.270; 6.083; 0.188; 5.670;99
05 34 48.28;-05 32 35.13; 3.542;-0.076; 5.842;-0.52; 0.355; 5.976; 0.315; 5.463;99
05 35 25.33;-05 25 29.46; 3.518;-0.249; 4.647;-0.69; 0.282; 5.921; 0.198; 5.630;
05 35 20.32;-05 36 39.53; 3.495;-0.080; 5.225;-0.90; 0.228; 4.936; 0.138; 5.000;99
05 35 16.96;-05 22 48.67; 3.624;-1.373; 1.579;-0.09;      ;      ;      ;      ;99
05 34 49.07;-05 26 26.64; 3.533;-0.710; 2.442;-0.58; 0.310; 6.460; 0.275; 6.231;99
05 35 08.04;-05 36 14.14; 3.501;-0.264; 4.162;-1.37; 0.243; 5.561; 0.145; 5.312;
05 34 52.85;-05 33 48.35; 3.524;-0.706; 2.038;-1.25; 0.282; 6.413; 0.230; 6.134;99
05 35 14.45;-05 32 46.53; 3.515;-0.579; 2.708;-1.06; 0.262; 6.290; 0.190; 5.858;99
05 35 12.16;-05 30 20.13; 3.485;-0.552; 2.573;-1.26; 0.190; 5.816; 0.102; 5.279;99
05 36 03.86;-05 30 18.76; 3.495;-1.055; 0.000;-1.45; 0.170; 6.552; 0.135; 6.196;99
05 35 31.41;-05 28 16.35; 3.495;-0.426; 3.471;-0.90; 0.222; 5.653; 0.130; 5.366;99
05 35 05.89;-05 27 08.92; 3.597;-0.263; 5.932;-0.22; 0.670; 6.478; 0.690; 6.492;99
05 34 44.41;-05 26 06.17; 3.495;-0.365; 3.795;-0.90; 0.225; 5.538; 0.130; 5.327;99
05 35 19.75;-05 39 35.62; 3.530;-1.051; 0.224;-5.00; 0.270; 6.806; 0.260; 6.609;
05 35 31.69;-05 42 46.01; 3.530;-1.007; 0.455;-5.00; 0.275; 6.760; 0.260; 6.540;
05 34 07.80;-05 22 32.34; 3.533;-1.090; 0.053;-5.00; 0.280; 6.888; 0.280; 6.725;
05 34 33.83;-05 27 18.12; 3.476;-0.881; 0.755;-2.62; 0.138; 6.215; 0.100; 5.737;99
05 34 54.19;-05 28 54.33; 3.585;-0.351; 4.359;-0.74; 0.572; 6.458; 0.600; 6.479;99
05 35 27.74;-05 18 04.66; 3.569;-0.129; 6.127;-0.36; 0.465; 6.059; 0.465; 5.927;99
05 34 56.78;-05 10 43.86; 3.515;-0.913; 0.927;-5.00; 0.237; 6.556; 0.192; 6.236;97
05 35 13.02;-05 22 00.89; 3.551;-0.878; 1.287;-5.00; 0.365; 6.799; 0.365; 6.704;99
05 35 12.59;-05 20 43.02; 3.505;-1.078; 0.000;-5.00; 0.192; 6.632; 0.165; 6.309;99
05 35 21.24;-05 22 59.57; 3.533;-0.623; 3.046;-0.58; 0.315; 6.362; 0.275; 6.155;99
05 35 25.46;-05 21 34.38; 3.624;-0.378; 4.017;-5.00; 0.930; 7.013; 0.865; 6.920;80
05 35 22.28;-05 31 16.89; 3.476;-0.693; 1.893;-1.58; 0.155; 5.576;      ;      ;99
05 34 57.92;-05 29 46.04; 3.533;-0.756; 1.924;-3.09; 0.308; 6.504; 0.275; 6.268;99
05 34 32.23;-05 41 48.46; 3.513;-0.982; 0.647;-2.12; 0.225; 6.608; 0.188; 6.286;
05 35 57.40;-05 25 08.64; 3.495;-1.077; 0.000;-5.00; 0.168; 6.560; 0.135; 6.217;99
05 34 41.62;-05 23 57.45; 3.495;-0.702; 2.006;-1.63; 0.200; 6.357; 0.132; 5.661;99
05 35 16.30;-05 20 25.25; 3.495;-0.816; 1.374;-5.00; 0.190; 6.416; 0.135; 5.921;95
05 34 29.99;-05 25 17.37; 3.472;-1.010; 0.192;-3.55; 0.117; 6.377;      ;      ;99
05 35 18.36;-05 20 16.51; 3.505;-0.447; 3.669;-0.81; 0.245; 6.028; 0.157; 5.510;99
05 34 12.02;-05 24 19.65; 3.524;-0.549; 3.047;-1.42; 0.290; 6.269; 0.230; 5.945;
05 35 03.23;-05 17 53.33; 3.476;-0.847; 1.071;-5.00; 0.140; 6.078; 0.100; 5.650;99
05 35 19.87;-05 30 32.19; 3.485;-0.733; 1.950;-0.97; 0.172; 6.327; 0.105; 5.536;99
05 35 23.75;-05 18 40.03; 3.551;-0.798; 1.871;-1.72; 0.370; 6.695; 0.365; 6.585;99
05 35 23.33;-05 21 25.40; 3.597;-0.532; 4.749;-0.22; 0.702; 6.911; 0.680; 6.846;99
05 35 47.66;-05 19 14.41; 3.551;-0.739; 2.206;-1.58; 0.373; 6.627; 0.365; 6.501;77
05 35 34.37;-05 26 59.63; 3.497;-0.508; 3.074;-5.00; 0.222; 6.125; 0.138; 5.434;
05 35 42.67;-05 25 45.16; 3.524;-0.209; 5.239;-0.65; 0.295; 6.003; 0.220; 5.615;99
05 35 17.98;-05 30 31.54; 3.485;-0.495; 3.273;-0.97; 0.195; 5.586; 0.102; 5.257;99
05 35 16.60;-05 19 35.79; 3.585;-0.506; 3.489;-5.00; 0.582; 6.689; 0.605; 6.698;99
05 35 10.29;-05 19 56.41; 3.505;-0.595; 2.707;-5.00; 0.235; 6.295; 0.162; 5.716;
05 34 42.39;-05 12 38.14; 3.505;-0.682; 2.271;-2.43; 0.228; 6.347; 0.162; 5.841;88
05 34 33.58;-05 22 08.81; 3.505;-0.482; 3.601;-0.81; 0.243; 6.135; 0.160; 5.567;99
05 36 02.76;-05 15 27.14; 3.476;-0.555; 2.742;-2.08; 0.168; 5.399;      ;      ;
05 34 12.71;-05 41 36.45; 3.509;-1.010; 0.619;-3.72; 0.210; 6.606; 0.175; 6.273;
05 35 41.23;-05 38 29.50; 3.513;-0.804; 1.755;-1.85; 0.240; 6.458; 0.185; 6.105;
05 35 17.14;-05 12 39.36; 3.495;-0.924; 0.961;-2.49; 0.180; 6.473; 0.135; 6.063;99
05 35 31.55;-05 40 27.83; 3.609;-0.247; 5.618;-0.43; 0.788; 6.590; 0.790; 6.617;
05 34 32.03;-05 11 24.83; 3.485;-0.525; 3.017;-2.16; 0.192; 5.673; 0.102; 5.271;84
05 35 06.43;-05 27 04.73; 3.501;-0.385; 3.918;-1.45; 0.240; 5.708; 0.147; 5.436;
05 34 48.82;-05 33 33.08; 3.542;-0.671; 2.780;-0.99; 0.343; 6.471; 0.320; 6.289;99
05 35 13.51;-05 17 17.36; 3.533;-0.650; 2.733;-1.59; 0.315; 6.400; 0.275; 6.175;99
05 34 18.68;-05 37 08.12; 3.509;-0.658; 2.822;-0.77; 0.243; 6.338; 0.172; 5.876;
05 35 10.18;-05 20 21.13; 3.524;-0.922; 1.264;-1.69; 0.265; 6.625; 0.235; 6.359;99
05 35 02.75;-05 19 44.59; 3.569;-0.446; 4.794;-0.36; 0.468; 6.416; 0.470; 6.342;99
05 34 24.06;-05 42 22.13; 3.524;-0.615; 2.930;-1.31; 0.287; 6.332; 0.230; 6.026;
05 36 03.36;-05 24 23.23; 3.505;-1.035; 0.530;-5.00; 0.195; 6.597; 0.165; 6.268;
05 35 15.33;-05 13 37.94; 3.524;-0.757; 2.121;-5.00; 0.278; 6.463; 0.230; 6.181;99
05 36 07.04;-05 34 18.31; 3.551;-0.495; 4.273;-0.46; 0.382; 6.333; 0.365; 6.234;
05 35 13.75;-05 34 54.95; 3.505;-0.259; 4.885;-0.81; 0.250; 5.624; 0.155; 5.365;
05 35 10.90;-05 22 46.42; 3.539;-1.180; 0.000;-5.00; 0.290; 7.036; 0.305; 6.989;
05 35 12.05;-05 14 14.66; 3.537;-1.181; 0.000;-5.00; 0.282; 7.018; 0.300; 6.972;
05 34 04.40;-05 36 26.42; 3.501;-0.902; 1.249;-2.49; 0.198; 6.485; 0.153; 6.092;
05 35 08.67;-05 29 01.54; 3.591;-0.465; 4.119;-0.88; 0.630; 6.710; 0.640; 6.686;99
05 35 18.80;-05 17 29.18; 3.872; 1.282;12.144;-5.00; 1.945; 6.866; 1.962; 6.706;99
05 34 54.84;-05 25 12.64; 3.533;-0.260; 5.338;-0.58; 0.322; 6.079; 0.270; 5.717;99
05 35 50.97;-05 33 13.34; 3.485;-1.125; 0.000;-5.00; 0.138; 6.558; 0.110; 6.179;99
05 35 18.09;-05 15 46.16; 3.524;-0.724; 2.393;-5.00; 0.280; 6.426; 0.230; 6.145;99
05 34 40.94;-05 26 00.02; 3.585;-0.552; 4.655;-0.28; 0.585; 6.766; 0.605; 6.759;99
05 35 02.08;-05 18 22.74; 3.495;-0.502; 3.345;-5.00; 0.218; 6.056; 0.130; 5.397;99
05 35 06.46;-05 31 09.26; 3.505;-0.612; 3.133;-0.81; 0.233; 6.305; 0.162; 5.740;99
05 35 18.94;-05 20 52.25; 3.609;-0.562; 3.433;-5.00; 0.805; 7.131; 0.755; 7.018;97
05 34 02.92;-05 39 21.17; 3.509;-1.061; 0.557;-5.00; 0.203; 6.645; 0.177; 6.324;
05 35 14.63;-05 16 46.11; 3.507;-0.323; 4.694;-0.79; 0.255; 5.744; 0.162; 5.488;
05 35 42.67;-05 40 42.29; 3.509;-0.821; 1.849;-1.75; 0.228; 6.450; 0.175; 6.083;
05 35 25.54;-05 34 04.76; 3.551;-0.702; 3.319;-0.46; 0.375; 6.577; 0.365; 6.445;
05 35 18.02;-05 24 03.09; 3.569;-0.836; 2.908;-0.36; 0.455; 6.937; 0.480; 6.904;
05 35 06.91;-05 26 00.54; 3.501;-1.047; 0.589;-5.00; 0.185; 6.582; 0.153; 6.243;
05 35 11.73;-05 23 51.90; 3.507;-1.173; 0.000;-1.96; 0.190; 6.723; 0.172; 6.444;
05 34 59.31;-05 23 32.65; 3.476;-0.650; 2.476;-5.00; 0.160; 5.531;      ;      ;99
05 35 05.61;-05 18 24.82; 3.515;-0.454; 3.809;-5.00; 0.268; 6.170; 0.190; 5.729;
05 33 56.57;-05 39 04.40; 3.515;-1.032; 0.793;-2.61; 0.225; 6.662; 0.192; 6.353;
05 35 33.59;-05 15 23.21; 3.555;-0.614; 3.164;-5.00; 0.390; 6.496; 0.380; 6.372;
05 35 23.51;-05 34 23.40; 3.509;-1.076; 0.534;-2.20; 0.203; 6.659; 0.177; 6.350;
05 34 25.54;-05 37 02.32; 3.515;-0.586; 3.474;-0.72; 0.262; 6.290; 0.190; 5.870;
05 35 16.82;-05 39 17.01; 3.505;-0.477; 3.781;-1.06; 0.243; 6.135; 0.160; 5.548;
05 35 57.68;-05 17 46.67; 3.495;-1.155; 0.000;-5.00; 0.160; 6.617; 0.138; 6.291;99
05 35 38.73;-05 16 59.06; 3.476;-0.949; 0.937;-5.00; 0.130; 6.379; 0.100; 5.973;99
05 34 22.39;-05 22 26.88; 3.485;-0.794; 1.839;-1.99; 0.168; 6.379; 0.108; 5.618;
05 34 40.00;-05 26 04.08; 3.476;-0.785; 1.813;-2.29; 0.147; 5.748; 0.100; 5.576;99
05 35 20.47;-05 29 11.00; 3.472;-1.048; 0.399;-5.00; 0.112; 6.398;      ;      ;99
05 35 38.90;-05 36 33.26; 3.495;-0.284; 4.805;-0.90; 0.228; 5.434; 0.127; 5.252;32
05 35 15.69;-05 28 15.46; 3.505;-0.932; 1.273;-5.00; 0.205; 6.519; 0.162; 6.163;99
05 35 18.27;-05 23 07.48; 3.515;-1.191; 0.000;-5.00; 0.207; 6.809; 0.192; 6.576;
05 35 39.02;-05 21 01.77; 3.577;-0.359; 4.660;-1.43; 0.512; 6.382; 0.530; 6.344;99
05 35 04.17;-05 22 24.40; 3.495;-0.790; 2.098;-1.11; 0.192; 6.401; 0.135; 5.859;99
05 35 19.67;-05 35 35.76; 3.495;-1.167; 0.000;-5.00; 0.160; 6.617; 0.138; 6.302;99
05 35 26.93;-05 24 48.06; 3.485;-0.869; 1.684;-0.97; 0.162; 6.427; 0.108; 5.782; 0
05 34 38.19;-05 35 49.59; 3.509;-0.774; 2.438;-0.84; 0.233; 6.418; 0.175; 6.033;
05 34 47.92;-05 35 43.90; 3.505;-0.419; 4.112;-1.22; 0.245; 5.821; 0.157; 5.501;88
05 35 17.38;-05 12 29.54; 3.476;-1.084; 0.308;-5.00; 0.117; 6.522; 0.100; 6.102;99
05 34 11.68;-05 33 55.94; 3.569;-1.116; 0.669;-4.10; 0.440; 7.331; 0.480; 7.368;
05 34 56.36;-05 33 40.50; 3.476;-1.147; 0.000;-5.00; 0.112; 6.559; 0.100; 6.171;99
05 35 06.46;-05 21 18.84; 3.495;-0.939; 1.236;-5.00; 0.180; 6.482; 0.135; 6.075;99
05 35 21.91;-05 15 01.13; 3.515;-0.210; 5.226;-5.00; 0.273; 5.784; 0.185; 5.505;98
05 34 29.35;-05 33 39.70; 3.544;-1.149; 0.463;-5.00; 0.313; 7.057; 0.335; 7.022;
05 34 46.34;-05 18 54.50; 3.569;-1.005; 1.354;-1.39; 0.447; 7.183; 0.480; 7.152; 0
05 35 23.98;-05 25 09.80; 3.569;-1.072; 1.846;-0.36; 0.445; 7.273; 0.480; 7.299;99
05 34 56.62;-05 11 12.53; 3.542;-0.725; 2.733;-1.57; 0.340; 6.532; 0.320; 6.350;99
05 35 10.41;-05 19 52.40; 3.537;-0.196; 5.454;-5.00; 0.338; 6.043; 0.290; 5.694;
05 34 54.65;-05 28 18.27; 3.533;-1.043; 1.073;-1.36; 0.282; 6.824; 0.280; 6.668;99
05 34 55.55;-05 36 06.20; 3.577;-0.363; 5.119;-0.61; 0.512; 6.382; 0.530; 6.356;29
05 35 08.39;-05 28 29.33; 3.690;      ; 5.893; 0.00;      ;      ;      ;      ;99
05 34 18.12;-05 28 33.53; 3.560;-0.291; 5.819;-0.41; 0.423; 6.170; 0.410; 6.169;
05 35 01.58;-05 25 33.87; 3.495;-0.739; 2.576;-0.90; 0.195; 6.372; 0.135; 5.738;99
05 35 20.24;-05 13 59.49; 3.505;-0.194; 5.290;-5.00; 0.250; 5.527; 0.155; 5.269;99
05 34 25.79;-05 35 46.60; 3.513;-1.138; 0.428;-5.00; 0.207; 6.746; 0.188; 6.461;
05 35 28.41;-05 19 02.17; 3.533;-0.398; 4.919;-0.58; 0.322; 6.170; 0.275; 5.887;99
05 35 41.13;-05 42 51.19; 3.507;-1.088; 0.674;-5.00; 0.195; 6.649; 0.170; 6.329;
05 34 46.09;-05 37 31.23; 3.505;-0.961; 1.352;-1.95; 0.203; 6.543; 0.162; 6.188;98
05 35 20.28;-05 32 16.89; 3.476;-0.659; 2.868;-1.03; 0.157; 5.509;      ;      ;98
05 34 27.12;-05 16 48.79; 3.495;-1.001; 1.071;-1.80; 0.172; 6.514; 0.135; 6.135;
05 35 02.02;-05 18 34.22; 3.533;-0.320; 4.881;-5.00; 0.325; 6.117; 0.275; 5.806;99
05 34 44.48;-05 24 38.45; 3.515;-1.067; 0.947;-1.65; 0.220; 6.689; 0.192; 6.405;99
05 35 28.28;-05 37 19.66; 3.501;-0.721; 2.733;-1.19; 0.215; 6.370; 0.150; 5.827;
05 35 42.06;-05 12 59.57; 3.495;-0.724; 2.595;-1.69; 0.198; 6.365; 0.132; 5.694;
05 35 30.64;-05 15 16.35; 3.499;-0.907; 1.636;-5.00; 0.192; 6.481; 0.147; 6.082;
05 34 25.66;-05 21 57.60; 3.551;-0.540; 4.113;-0.81; 0.382; 6.389; 0.365; 6.261;
05 35 22.25;-05 18 08.83; 3.501;-0.649; 3.034;-1.96; 0.220; 6.330; 0.153; 5.718;
05 35 13.10;-05 21 13.43; 3.542;-0.629; 3.933;-0.52; 0.345; 6.425; 0.320; 6.245;
05 34 13.51;-05 35 38.66; 3.553;-0.501; 4.784;-0.45; 0.390; 6.350; 0.375; 6.253;
05 35 07.86;-05 17 05.34; 3.533;-1.146; 0.663;-2.20; 0.275; 6.936; 0.280; 6.844;99
05 34 47.93;-05 23 40.35; 3.533;-0.450; 4.814;-0.58; 0.322; 6.208; 0.275; 5.927;99
05 35 56.77;-05 19 57.95; 3.476;-0.701; 2.802;-1.03; 0.155; 5.576;      ;      ;95
05 34 58.38;-05 21 16.60; 3.560;-0.494; 4.231;-5.00; 0.420; 6.397; 0.410; 6.291;99
05 34 28.22;-05 26 39.73; 3.485;-0.907; 1.634;-3.13; 0.157; 6.449; 0.108; 5.927;
05 34 30.59;-05 11 04.93; 3.524;-1.002; 1.486;-1.46; 0.255; 6.695; 0.235; 6.451;17
05 34 07.14;-05 22 27.06; 3.499;-0.903; 1.787;-2.24; 0.192; 6.481; 0.147; 6.082;
05 35 01.32;-05 18 21.30; 3.509;-0.854; 2.137;-5.00; 0.225; 6.484; 0.175; 6.121;
05 35 26.96;-05 24 00.72; 3.476;-1.215; 0.000;-5.00; 0.105; 6.598; 0.100; 6.229;99
05 35 34.62;-05 15 52.73; 3.509;-0.992; 1.438;-5.00; 0.210; 6.593; 0.175; 6.253;
05 34 37.66;-05 26 21.57; 3.495;-0.539; 3.922;-0.90; 0.215; 6.203; 0.130; 5.410;99
05 35 17.86;-05 30 40.81; 3.533;-0.418; 5.087;-0.58; 0.322; 6.189; 0.275; 5.904;99
05 35 05.19;-05 26 03.65; 3.505;-0.850; 2.288;-1.19; 0.213; 6.464; 0.162; 6.076;99
05 35 20.16;-05 34 57.26; 3.533;-0.562; 4.335;-0.58; 0.317; 6.311; 0.275; 6.094;99
05 35 13.04;-05 34 03.59; 3.485;-0.796; 2.368;-1.82; 0.168; 6.379; 0.108; 5.618;99
05 35 50.13;-05 10 29.44; 3.495;-1.223; 0.199;-5.00; 0.155; 6.657; 0.138; 6.363;99
05 34 30.12;-05 40 15.24; 3.503;-0.338; 5.163;-0.83; 0.245; 5.685; 0.153; 5.438;
05 34 16.96;-05 30 53.27; 3.497;-0.819; 2.395;-1.49; 0.195; 6.418; 0.142; 5.970;
05 35 22.68;-05 16 14.04; 3.551;-0.610; 3.752;-5.00; 0.377; 6.467; 0.365; 6.323;
05 34 04.65;-05 22 22.43; 3.517; 0.008; 7.196;-0.71; 0.275; 5.012; 0.188; 5.000;
05 35 52.49;-05 27 57.42; 3.505;-1.188; 0.505;-3.16; 0.183; 6.708; 0.165; 6.423;99
05 36 01.83;-05 33 12.78; 3.914;      ; 6.341; 0.00;      ;      ;      ;      ; 0
05 34 29.45;-05 23 37.43; 3.485;-1.232; 0.127;-2.84; 0.127; 6.615; 0.110; 6.271;99
05 35 19.79;-05 14 05.34; 3.515;-0.430; 4.895;-0.72; 0.270; 6.120; 0.188; 5.684;98
05 35 13.50;-05 17 31.27; 3.624;-0.276; 5.590;-5.00; 0.955; 6.838; 0.895; 6.814;99
05 35 06.84;-05 42 35.43; 3.524;-1.194; 0.620;-5.00; 0.240; 6.897; 0.235; 6.733;
05 35 20.74;-05 37 53.77; 3.505;-0.619; 3.782;-0.81; 0.233; 6.305; 0.162; 5.756;99
05 34 52.36;-05 25 00.71; 3.485;-0.614; 3.479;-1.26; 0.185; 6.097; 0.102; 5.302;
05 34 29.38;-05 25 51.89; 3.505;-0.885; 2.270;-1.05; 0.210; 6.486; 0.162; 6.113;96
05 35 17.97;-05 16 45.10; 3.548;-0.366; 5.080;-5.00; 0.373; 6.186; 0.345; 5.985;
05 35 04.21;-05 15 21.50; 3.569;-0.707; 3.382;-1.90; 0.460; 6.766; 0.475; 6.724;99
05 35 42.09;-05 20 06.06; 3.515;-1.186; 0.634;-5.00; 0.210; 6.810; 0.192; 6.557; 0
05 34 07.12;-05 15 59.35; 3.515;-0.608; 3.703;-1.58; 0.260; 6.309; 0.190; 5.899;
05 34 46.69;-05 21 24.69; 3.533;-0.792; 2.947;-1.03; 0.305; 6.550; 0.280; 6.326;99
05 34 49.07;-05 28 08.94; 3.476;-0.537; 3.925;-1.03; 0.168; 5.373;      ;      ;99
05 35 12.94;-05 28 49.83; 3.530;-0.691; 3.338;-5.00; 0.300; 6.421; 0.255; 6.173;
05 34 54.11;-05 22 26.52; 3.485;-1.053; 1.136;-2.53; 0.142; 6.521; 0.110; 6.109;99
05 34 53.94;-05 27 49.12; 3.533;-0.471; 4.996;-0.58; 0.322; 6.228; 0.275; 5.947;99
05 35 16.78;-05 16 53.33; 3.505;-0.801; 2.614;-5.00; 0.218; 6.433; 0.162; 6.026;99
05 35 54.50;-05 26 45.62; 3.577;-0.709; 3.725;-0.72; 0.515; 6.877; 0.540; 6.845;98
05 34 12.34;-05 41 34.73; 3.495;-1.171; 0.618;-2.69; 0.160; 6.629; 0.138; 6.302;
05 35 30.45;-05 28 11.25; 3.524;-0.586; 4.295;-0.65; 0.287; 6.300; 0.230; 5.986;99
05 35 53.16;-05 19 30.00; 3.542;-1.119; 1.208;-2.00; 0.308; 7.012; 0.325; 6.959; 0
05 34 06.86;-05 23 08.36; 3.497;-0.914; 2.011;-1.81; 0.188; 6.477; 0.142; 6.072;
05 34 58.53;-05 32 49.93; 3.542;-0.127; 6.945;-0.52; 0.355; 6.002; 0.315; 5.623;99
05 35 54.67;-05 22 00.69; 3.706;-0.166; 6.905;-0.47; 0.983; 7.466; 0.950; 7.427;98
05 35 30.69;-05 25 11.09; 3.533;-1.221; 0.643;-5.00; 0.268; 7.033; 0.280; 6.971;99
05 34 39.76;-05 17 24.26; 3.485;-1.256; 0.127;-5.00; 0.125; 6.632; 0.110; 6.293;99
05 35 00.85;-05 31 05.94; 3.542;-0.278; 6.185;-0.52; 0.355; 6.095; 0.320; 5.855;99
05 34 07.22;-05 29 32.40; 3.501;-0.898; 2.168;-1.91; 0.198; 6.485; 0.153; 6.092;
05 35 52.27;-05 13 18.72; 3.495;-1.149; 0.789;-5.00; 0.160; 6.606; 0.135; 6.282;
05 35 32.81;-05 17 38.45; 3.560;-0.738; 3.305;-5.00; 0.410; 6.701; 0.410; 6.634;99
05 35 18.47;-05 39 19.88; 3.507;-1.153; 0.913;-1.93; 0.190; 6.709; 0.172; 6.418;
05 34 46.95;-05 16 19.61; 3.524;-0.783; 3.030;-1.34; 0.278; 6.489; 0.230; 6.210;99
05 35 31.53;-05 15 23.63; 3.543;-0.819; 2.867;-5.00; 0.335; 6.644; 0.320; 6.470;
05 35 35.12;-05 27 54.75; 3.542;-0.815; 2.900;-5.00; 0.335; 6.644; 0.320; 6.470;99
05 35 13.61;-05 21 21.08; 3.533;-1.257; 0.555;-5.00; 0.265; 7.067; 0.280; 7.018;
05 36 02.83;-05 32 54.34; 3.533;-0.421; 5.422;-0.58; 0.322; 6.189; 0.275; 5.904;99
05 34 11.50;-05 30 19.84; 3.499;-0.590; 3.907;-1.45; 0.220; 6.288; 0.142; 5.595;
05 36 05.13;-05 11 13.63; 3.485;-1.054; 1.319;-5.00; 0.145; 6.520; 0.110; 6.109;
05 35 54.15;-05 17 10.46; 3.485;-0.783; 2.816;-1.35; 0.170; 6.371; 0.108; 5.606;99
05 35 31.75;-05 16 39.91; 3.558;-0.648; 4.107;-0.87; 0.405; 6.574; 0.400; 6.483;
05 35 09.65;-05 26 23.27; 3.569;-1.069; 1.719;-5.00; 0.445; 7.273; 0.480; 7.299;99
05 35 01.61;-05 33 38.10; 3.533;-0.413; 5.029;-5.00; 0.322; 6.180; 0.275; 5.904;99
05 34 28.97;-05 23 48.12; 3.501;-1.046; 1.511;-5.00; 0.185; 6.582; 0.153; 6.243;
05 35 05.68;-05 43 04.62; 3.503;-1.155; 0.970;-5.00; 0.183; 6.681; 0.160; 6.374;
05 35 53.65;-05 15 41.72; 3.683;-0.422; 5.159;-5.00; 0.858; 7.611; 0.835; 7.584;97
05 35 13.31;-05 37 15.87; 3.499;-0.962; 1.996;-1.94; 0.188; 6.517; 0.147; 6.143;
05 34 50.10;-05 17 12.14; 3.542;-0.159; 7.004;-0.52; 0.355; 6.021; 0.315; 5.699;99
05 35 37.62;-05 19 44.11; 3.485;-1.164; 0.835;-5.00; 0.132; 6.582; 0.110; 6.214;99
05 36 05.76;-05 18 55.98; 3.505;-1.171; 0.971;-5.00; 0.185; 6.699; 0.165; 6.410;
05 34 56.93;-05 22 06.27; 3.533;-0.775; 3.229;-5.00; 0.308; 6.532; 0.280; 6.304;99
05 34 48.46;-05 31 07.22; 3.520;-0.914; 2.811;-0.68; 0.255; 6.596; 0.215; 6.298;
05 35 05.62;-05 29 22.34; 3.577;-1.012; 2.281;-1.00; 0.505; 7.313; 0.540; 7.354;99
05 35 35.60;-05 39 08.18; 3.533;-0.880; 3.191;-0.58; 0.298; 6.643; 0.280; 6.429;
05 35 43.60;-05 32 11.88; 3.495;-0.922; 2.248;-5.00; 0.180; 6.473; 0.135; 6.051;99
05 35 08.97;-05 10 25.66; 3.533;-1.402; 0.000;-5.00; 0.255; 7.242; 0.280; 7.214; 0
05 35 08.25;-05 29 12.10; 3.505;-0.700; 3.782;-0.81; 0.228; 6.364; 0.162; 5.901;99
05 35 01.72;-05 27 09.90; 3.497;-0.857; 2.627;-5.00; 0.192; 6.443; 0.142; 6.010;
05 34 53.48;-05 40 03.97; 3.507;-1.188; 1.005;-1.91; 0.188; 6.733; 0.172; 6.458;
05 35 05.46;-05 25 55.79; 3.524;-0.805; 3.106;-5.00; 0.275; 6.502; 0.230; 6.227;99
05 34 30.24;-05 17 01.22; 3.507;-1.299; 0.419;-5.00; 0.180; 6.822; 0.172; 6.622;
05 35 03.43;-05 26 09.97; 3.505;-1.084; 1.545;-5.00; 0.192; 6.632; 0.165; 6.309;99
05 34 41.73;-05 36 48.76; 3.507;-0.772; 3.501;-0.79; 0.228; 6.410; 0.170; 6.009;
05 35 20.17;-05 28 41.68; 3.495;-1.124; 1.324;-1.51; 0.162; 6.598; 0.138; 6.259;99
05 35 28.17;-05 11 37.53; 3.551;-0.576; 5.133;-0.46; 0.380; 6.420; 0.365; 6.285;99
05 34 58.70;-05 12 26.10; 3.485;-1.116; 1.249;-2.42; 0.138; 6.558; 0.110; 6.168;99
05 35 04.87;-05 20 57.56; 3.524;-0.801; 3.199;-5.00; 0.275; 6.502; 0.230; 6.219;97
05 34 25.20;-05 32 13.81; 3.495;-1.020; 1.882;-2.23; 0.172; 6.534; 0.135; 6.160;
05 35 11.08;-05 41 56.35; 3.503;-1.172; 1.147;-2.45; 0.180; 6.690; 0.160; 6.387;
05 34 57.38;-05 14 33.53; 3.505;-0.761; 3.315;-5.00; 0.222; 6.402; 0.162; 5.972;99
05 35 02.76;-05 32 02.89; 3.495;-0.803; 3.260;-0.90; 0.190; 6.409; 0.135; 5.904;99
05 34 17.30;-05 22 48.09; 3.542;-0.617; 4.923;-0.52; 0.345; 6.412; 0.320; 6.238;
05 34 22.33;-05 34 47.36; 3.495;-0.691; 3.925;-0.90; 0.200; 6.351; 0.132; 5.649;
05 35 15.28;-05 20 29.02; 3.515;-1.022; 2.137;-5.00; 0.225; 6.648; 0.192; 6.340;
05 35 18.50;-05 42 30.73; 3.507;-0.600; 4.576;-0.79; 0.240; 6.299; 0.168; 5.751;
05 35 40.01;-05 26 01.30; 3.524;-1.207; 1.355;-1.13; 0.237; 6.913; 0.235; 6.757; 0
05 34 50.47;-05 32 53.85; 3.485;-1.112; 1.480;-1.83; 0.138; 6.550; 0.110; 6.168;99
05 34 23.97;-05 28 34.71; 3.542;-0.547; 5.349;-0.52; 0.350; 6.338; 0.320; 6.180;
05 35 17.98;-05 26 50.55; 3.505;-0.731; 3.918;-0.81; 0.225; 6.383; 0.162; 5.929;99
05 34 19.09;-05 33 11.48; 3.524;-0.554; 5.103;-0.65; 0.290; 6.279; 0.230; 5.945;
05 35 12.68;-05 19 35.48; 3.542;-0.982; 2.564;-5.00; 0.320; 6.836; 0.320; 6.706;99
05 35 38.12;-05 28 33.59; 3.533;-0.583; 5.091;-0.58; 0.317; 6.335; 0.275; 6.114;99
05 35 05.62;-05 11 50.60; 3.662; 0.212; 8.947;-5.00; 1.440; 6.574; 1.327; 6.521;99
05 35 58.95;-05 32 53.91; 3.485;-1.083; 1.900;-0.97; 0.140; 6.535; 0.110; 6.133;99
05 35 02.69;-05 32 24.98; 3.503;-0.618; 4.279;-5.00; 0.228; 6.309; 0.157; 5.717;
05 35 47.83;-05 13 17.76; 3.542;-0.680; 4.191;-5.00; 0.343; 6.485; 0.320; 6.289;
05 34 39.12;-05 34 02.35; 3.501;-0.499; 5.152;-0.84; 0.233; 6.130; 0.147; 5.482;
05 34 50.45;-05 16 29.70; 3.542;-0.691; 4.709;-0.52; 0.343; 6.500; 0.320; 6.313;99
05 34 53.89;-05 22 20.61; 3.485;-1.078; 1.764;-5.00; 0.140; 6.535; 0.110; 6.133;99
05 35 54.99;-05 22 35.54; 3.485;-1.150; 1.448;-1.73; 0.135; 6.574; 0.110; 6.203;99
05 34 48.93;-05 31 31.49; 3.542;-0.438; 6.076;-0.52; 0.352; 6.227; 0.320; 6.093;99
05 36 05.82;-05 28 02.95; 3.668;-0.352; 6.268;-0.90; 0.947; 7.407; 0.910; 7.386;
05 35 11.24;-05 41 36.20; 3.524;-0.522; 5.158;-1.04; 0.290; 6.250; 0.230; 5.904;
05 35 42.58;-05 33 48.96; 3.515;-1.091; 2.028;-1.66; 0.218; 6.718; 0.192; 6.431;99
05 34 52.68;-05 21 25.20; 3.515;-0.954; 2.711;-5.00; 0.233; 6.595; 0.192; 6.274;
05 35 21.21;-05 33 17.58; 3.551;-0.585; 5.492;-0.46; 0.380; 6.435; 0.365; 6.296;99
05 35 25.72;-05 29 35.33; 3.524;-0.512; 5.500;-0.65; 0.290; 6.240; 0.230; 5.896;99
05 34 35.60;-05 37 24.03; 3.503;-0.835; 3.415;-1.06; 0.210; 6.445; 0.157; 6.041;
05 34 48.11;-05 22 38.53; 3.524;-0.387; 6.163;-0.65; 0.295; 6.138; 0.230; 5.781;99
05 35 44.58;-05 32 55.97; 3.520;-1.274; 1.134;-1.75; 0.220; 6.943; 0.215; 6.823;
05 35 14.44;-05 33 19.10; 3.639;-1.617; 5.532;-0.02;      ;      ;      ;      ;99
05 33 53.98;-05 27 34.56; 3.550;-1.466; 0.273;-5.00; 0.317; 7.549; 0.360; 7.634;
05 34 42.19;-05 33 03.60; 3.533;-0.737; 4.501;-0.58; 0.310; 6.487; 0.275; 6.257;
05 34 41.96;-05 21 32.08; 3.501;-1.077; 2.044;-5.00; 0.183; 6.602; 0.153; 6.263;
05 35 19.56;-05 27 35.66; 3.562;-0.838; 3.619;-5.00; 0.412; 6.851; 0.425; 6.809;
05 35 49.76;-05 32 29.19; 3.542;-0.735; 4.655;-0.52; 0.340; 6.547; 0.320; 6.362;99
05 35 06.10;-05 14 25.01; 3.505;-0.614; 4.518;-5.00; 0.233; 6.305; 0.162; 5.740;99
05 35 59.96;-05 30 03.40; 3.542;-0.323; 6.816;-0.52; 0.355; 6.131; 0.320; 5.899;
05 35 01.08;-05 23 04.08; 3.505;-1.089; 2.332;-0.81; 0.192; 6.645; 0.165; 6.320;
05 35 14.50;-05 29 03.20; 3.505;-0.952; 3.053;-0.81; 0.203; 6.543; 0.162; 6.188;99
05 34 03.90;-05 29 51.20; 3.503;-1.294; 0.978;-2.53; 0.170; 6.783; 0.160; 6.543;
05 35 37.07;-05 37 37.24; 3.505;-0.702; 4.367;-0.81; 0.228; 6.364; 0.162; 5.901;
05 35 14.75;-05 34 16.83; 3.533;-0.724; 4.152;-5.00; 0.310; 6.473; 0.275; 6.239;99
05 35 22.23;-05 28 36.46; 3.476;-0.977; 2.469;-5.00; 0.127; 6.426; 0.100; 6.009;99
05 35 35.02;-05 41 01.41; 3.522;-0.694; 4.704;-0.66; 0.278; 6.392; 0.220; 6.090;
05 35 07.10;-05 42 33.34; 3.522;-1.077; 2.385;-1.34; 0.243; 6.753; 0.225; 6.515;
05 35 13.18;-05 36 18.04; 3.532;-0.775; 3.962;-5.00; 0.303; 6.525; 0.270; 6.276;
05 34 23.67;-05 17 23.79; 3.799;-0.399; 5.731;-5.00;      ;      ;      ;      ;
05 34 26.98;-05 18 03.25; 3.485;-0.740; 3.866;-5.00; 0.172; 6.327; 0.105; 5.549;
05 34 30.48;-05 21 56.02; 3.505;-1.038; 2.554;-1.35; 0.195; 6.597; 0.165; 6.268;
05 35 39.08;-05 20 25.70; 3.533;-0.933; 3.210;-5.00; 0.292; 6.702; 0.280; 6.497;99
05 34 41.82;-05 21 49.47; 3.495;-0.941; 2.918;-5.00; 0.177; 6.480; 0.135; 6.075;
05 34 43.88;-05 12 55.86; 3.668;-0.583; 5.218;-1.91; 0.788; 7.734; 0.760; 7.683; 0
05 35 28.35;-05 17 54.47; 3.569;-0.601; 5.115;-5.00; 0.463; 6.618; 0.475; 6.570;98
05 34 21.90;-05 15 30.43; 3.505;-0.651; 4.865;-0.81; 0.230; 6.330; 0.162; 5.787;
05 35 05.79;-05 23 16.09; 3.485;-1.354; 0.756;-5.00; 0.117; 6.686; 0.110; 6.407;
05 34 15.09;-05 23 00.06; 3.522;-1.553; 0.000;-5.00; 0.205; 7.284; 0.230; 7.265;
05 35 38.60;-05 27 36.90; 3.505;-1.164; 1.919;-5.00; 0.185; 6.699; 0.165; 6.397;99
05 36 03.48;-05 24 35.96; 3.476;-0.947; 2.908;-1.41; 0.130; 6.379; 0.100; 5.973;98
05 35 54.56;-05 21 57.50; 3.631;-0.346; 7.586;-0.31; 0.983; 7.046; 0.905; 6.967;99
05 35 11.34;-05 14 01.54; 3.505;-0.728; 4.246;-5.00; 0.225; 6.383; 0.162; 5.929;
05 36 00.50;-05 41 10.98; 3.543;-0.521; 6.125;-0.52; 0.350; 6.313; 0.320; 6.163;
05 34 45.26;-05 16 25.75; 3.495;-1.050; 2.509;-5.00; 0.170; 6.552; 0.135; 6.184;
05 34 41.59;-05 34 24.97; 3.515;-1.313; 1.311;-2.09; 0.198; 6.933; 0.192; 6.771;88
05 35 32.89;-05 39 19.16; 3.501;-1.173; 1.964;-1.88; 0.175; 6.666; 0.155; 6.365;
05 35 19.86;-05 31 03.77; 3.537;-0.719; 4.544;-5.00; 0.322; 6.498; 0.295; 6.277;
05 34 47.21;-05 18 09.83; 3.495;-1.208; 1.776;-1.70; 0.155; 6.645; 0.138; 6.337;
05 35 34.64;-05 27 15.05; 3.501;-1.178; 1.997;-1.52; 0.175; 6.680; 0.155; 6.378;
05 35 17.42;-05 30 46.71; 3.515;-0.977; 3.124;-5.00; 0.230; 6.608; 0.192; 6.293;99
05 35 03.44;-05 23 32.80; 3.524;-1.315; 1.447;-5.00; 0.228; 7.029; 0.235; 6.967;99
05 36 07.84;-05 31 11.79; 3.505;-1.334; 1.223;-5.00; 0.172; 6.835; 0.165; 6.626;
05 35 22.07;-05 28 55.60; 3.518;-0.980; 3.181;-5.00; 0.243; 6.637; 0.205; 6.339;
05 35 24.69;-05 28 25.41; 3.495;-0.991; 3.201;-0.90; 0.175; 6.516; 0.135; 6.123;99
05 34 02.68;-05 33 02.99; 3.493;-1.000; 3.013;-1.29; 0.170; 6.513; 0.130; 6.113;
05 35 21.64;-05 17 19.14; 3.524;-0.670; 4.910;-5.00; 0.285; 6.377; 0.230; 6.086;
05 35 05.76;-05 35 22.11; 3.501;-1.208; 1.976;-1.60; 0.172; 6.702; 0.155; 6.404;
05 34 31.35;-05 15 50.23; 3.505;-1.204; 2.036;-1.99; 0.183; 6.722; 0.165; 6.449;
05 34 50.22;-05 35 39.05; 3.499;-1.192; 2.133;-1.52; 0.168; 6.666; 0.150; 6.368;
05 34 42.48;-05 22 46.24; 3.503;-1.003; 3.115;-5.00; 0.192; 6.557; 0.157; 6.220;
05 35 47.52;-05 34 36.30; 3.597;-1.307; 1.895;-1.60;      ;      ; 0.540; 8.146;98
05 35 18.10;-05 28 24.89; 3.569;-1.381; 2.350;-0.36; 0.425; 7.724; 0.455; 7.813;99
05 35 52.90;-05 25 43.90; 3.551;-0.690; 5.728;-0.46; 0.375; 6.562; 0.365; 6.431;
05 35 21.62;-05 27 14.55; 3.485;-1.225; 1.868;-5.00; 0.127; 6.615; 0.110; 6.271;99
05 35 34.29;-05 33 21.65; 3.569;-0.514; 6.937;-0.36; 0.468; 6.506; 0.475; 6.447;99
05 34 50.14;-05 19 59.94; 3.485;-1.338; 1.290;-2.81; 0.120; 6.678; 0.110; 6.380;99
05 34 32.02;-05 27 42.60; 3.533;-0.877; 4.585;-0.58; 0.298; 6.643; 0.280; 6.429;
05 35 24.47;-05 19 09.79; 3.524;-1.659; 0.000;-5.00; 0.210; 7.455; 0.240; 7.460;99
05 35 36.56;-05 40 25.19; 3.507;-1.463; 0.946;-1.81; 0.172; 6.985; 0.172; 6.896;
05 34 28.57;-05 30 32.48; 3.513;-1.010; 3.664;-0.74; 0.222; 6.634; 0.188; 6.306;
05 35 03.00;-05 38 40.60; 3.503;-1.109; 3.095;-0.83; 0.185; 6.645; 0.160; 6.323;
05 35 42.62;-05 26 33.71; 3.507;-1.312; 1.809;-5.00; 0.180; 6.838; 0.172; 6.637;
05 35 36.35;-05 32 54.76; 3.560;-0.948; 3.993;-5.00; 0.398; 6.984; 0.410; 6.945;93
05 35 40.91;-05 22 02.29; 3.515;-1.251; 2.550;-0.72; 0.203; 6.873; 0.192; 6.654;99
05 34 13.05;-05 33 48.48; 3.533;-1.125; 3.504;-0.58; 0.278; 6.920; 0.280; 6.801;
05 34 17.26;-05 22 36.84; 3.564;-1.565; 0.852;-5.00; 0.390; 7.971; 0.425; 8.121;
05 35 51.85;-05 15 30.90; 3.495;-1.661; 0.000;-5.00; 0.127; 7.007; 0.140; 6.980;
05 34 48.24;-05 30 10.17; 3.505;-0.825; 4.749;-0.81; 0.215; 6.443; 0.162; 6.051;
05 34 48.48;-05 42 28.08; 3.569;-1.435; 2.477;-0.36; 0.423; 7.815; 0.450; 7.885;
05 34 26.79;-05 19 41.38; 3.515;-1.115; 3.103;-5.00; 0.215; 6.733; 0.192; 6.458;
05 34 15.31;-05 18 20.57; 3.675;-0.858; 5.874;-0.28;      ;      ;      ;      ;
05 35 53.95;-05 27 38.10; 3.495;-0.974; 3.956;-0.90; 0.175; 6.497; 0.135; 6.111;
05 34 07.02;-05 30 20.00; 3.520;-1.723; 0.116;-5.00; 0.198; 7.490; 0.220; 7.490;
05 35 32.60;-05 40 12.42; 3.501;-1.360; 1.904;-1.76; 0.162; 6.826; 0.155; 6.615;
05 35 19.32;-05 16 09.96; 3.535;-1.684; 0.602;-5.00; 0.252; 7.644; 0.295; 7.758;
05 34 17.15;-05 37 11.86; 3.526;-1.784; 0.051;-5.00; 0.215; 7.647; 0.250; 7.748;
05 35 13.58;-05 35 08.10; 3.569;-0.721; 5.860;-5.00; 0.460; 6.783; 0.475; 6.750;93
05 35 35.14;-05 33 49.23; 3.675;-1.632; 1.537;-0.61;      ;      ;      ;      ;98
05 34 06.79;-05 21 46.81; 3.507;-1.756; 0.252;-5.00; 0.162; 7.321; 0.172; 7.283;
05 34 47.66;-05 31 11.73; 3.520;-1.607; 1.183;-1.60; 0.198; 7.334; 0.220; 7.300;
05 35 29.68;-05 30 24.76; 3.522;-1.271; 3.330;-0.66; 0.225; 6.960; 0.225; 6.851;
05 36 06.34;-05 17 20.22; 3.576;-1.000; 4.606;-5.00; 0.500; 7.286; 0.540; 7.335;
05 34 59.19;-05 41 12.55; 3.524;-1.467; 2.456;-0.65; 0.218; 7.208; 0.240; 7.191;
05 34 47.74;-05 26 32.18; 3.511;-1.593; 1.348;-5.00; 0.177; 7.179; 0.185; 7.151;
05 35 50.04;-05 17 18.16; 3.551;-1.924; 0.000;-1.33; 0.300; 8.763;      ;      ;
05 34 46.87;-05 30 19.75; 3.507;-1.865; 0.047;-5.00; 0.162; 7.455; 0.175; 7.461;
05 35 33.25;-05 19 57.68; 3.597;-0.691; 6.518;-5.00; 0.700; 7.168; 0.645; 7.065;
05 35 57.35;-05 25 15.61; 3.509;-1.832; 0.269;-5.00; 0.168; 7.452; 0.180; 7.437;
05 34 57.37;-05 32 43.16; 3.560;-1.118; 5.059;-0.40; 0.387; 7.205; 0.415; 7.209;
05 35 15.50;-05 22 42.99; 3.555;-1.944; 0.000;-5.00;      ;      ;      ;      ;
05 34 53.07;-05 26 27.72; 3.503;-1.288; 3.513;-0.83; 0.170; 6.768; 0.160; 6.526;
05 35 49.85;-05 15 12.98; 3.597;-1.749; 1.507;-1.31;      ;      ;      ;      ;
05 35 59.26;-05 33 00.44; 3.507;-1.871; 0.503;-5.00; 0.162; 7.475; 0.175; 7.479;
05 35 12.40;-05 24 03.73; 3.522;-1.992; 0.000;-2.78; 0.203; 7.917; 0.230; 7.967;
05 34 18.38;-05 22 54.93; 3.524;-2.068; 0.056;-2.33; 0.218; 8.113; 0.235; 8.301;
05 35 03.79;-05 24 54.44; 3.509;-2.129; 0.000;-5.00; 0.177; 7.935; 0.180; 7.940;

